ExperimentName,Subject,Session,Clock.Information,DataFile.Basename,Display.RefreshRate,ExperimentVersion,Group,R1Color[Session],R2Color[Session],R3Color[Session],R4Color[Session],R5Color[Session],R6Color[Session],R7Color[Session],R8Color[Session],R9Color[Session],RandomSeed,RuntimeVersion,SessionDate,SessionStartDateTimeUtc,SessionTime,StudioVersion,Block,DAL,DIA,DIC,DJG,IA_Index,ListQues,ListSess,ListSess.Cycle,ListSess.Sample,other1,other2,other3,other4,other5,other6,other7,other8,other9,otherScore,Procedure,R0Color,R1Color[Block],R2Color[Block],R3Color[Block],R4Color[Block],R5Color[Block],R6Color[Block],R7Color[Block],R8Color[Block],R9Color[Block],RespDur,Running,SlideFB.ACC,SlideFB.CRESP,SlideFB.DurationError,SlideFB.OnsetDelay,SlideFB.OnsetTime,SlideFB.RESP,SlideFB.RT,SlideFB.RTTime,SlideTarget.ACC,SlideTarget.CRESP,SlideTarget.DurationError,SlideTarget.OnsetDelay,SlideTarget.OnsetTime,SlideTarget.RESP,SlideTarget.RT,SlideTarget.RTTime,SVO_angle,SVO_type,Trialnum,version,you1,you2,you3,you4,you5,you6,you7,you8,you9,yourScore
SVO,1231,1,"<?xml version=""1.0""?>\n<Clock xmlns:dt=""urn:schemas-microsoft-com:datatypes""><Description dt:dt=""string"">E-Prime Primary Realtime Clock</Description><StartTime><Timestamp dt:dt=""int"">0</Timestamp><DateUtc dt:dt=""string"">2021-06-25T09:20:59Z</DateUtc></StartTime><FrequencyChanges><FrequencyChange><Frequency dt:dt=""r8"">3312714</Frequency><Timestamp dt:dt=""r8"">17564397125</Timestamp><Current dt:dt=""r8"">0</Current><DateUtc dt:dt=""string"">2021-06-25T09:20:59Z</DateUtc></FrequencyChange></FrequencyChanges></Clock>\n",SVO-001231-1,59.893,1.0.0.130,1,black,black,black,black,black,black,black,black,black,385152912,2.0.10.182,06-25-2021,2021/6/25 9:20,17:20:59,2.0.10.92,1,,,,,,1,1,2,1,85,76,68,59,50,41,33,24,15,,ProcTrial,,cyan,black,black,black,black,black,black,black,black,-22312,ListSess,0,,-999999,117,46728,{SPACE},5665,52393,0,,-999999,134,20798,1,25812,46610,,,1,1,85,85,85,85,85,85,85,85,85,
SVO,1231,1,"<?xml version=""1.0""?>\n<Clock xmlns:dt=""urn:schemas-microsoft-com:datatypes""><Description dt:dt=""string"">E-Prime Primary Realtime Clock</Description><StartTime><Timestamp dt:dt=""int"">0</Timestamp><DateUtc dt:dt=""string"">2021-06-25T09:20:59Z</DateUtc></StartTime><FrequencyChanges><FrequencyChange><Frequency dt:dt=""r8"">3312714</Frequency><Timestamp dt:dt=""r8"">17564397125</Timestamp><Current dt:dt=""r8"">0</Current><DateUtc dt:dt=""string"">2021-06-25T09:20:59Z</DateUtc></FrequencyChange></FrequencyChanges></Clock>\n",SVO-001231-1,59.893,1.0.0.130,1,black,black,black,black,black,black,black,black,black,385152912,2.0.10.182,06-25-2021,2021/6/25 9:20,17:20:59,2.0.10.92,2,,,,,,2,1,2,2,15,19,24,28,33,37,41,46,50,,ProcTrial,,black,black,black,black,black,black,black,black,cyan,-6271,ListSess,0,,-999999,96,62873,{SPACE},2173,65046,0,,-999999,101,53006,9,9771,62777,,,2,1,85,87,89,91,93,94,96,98,100,
SVO,1231,1,"<?xml version=""1.0""?>\n<Clock xmlns:dt=""urn:schemas-microsoft-com:datatypes""><Description dt:dt=""string"">E-Prime Primary Realtime Clock</Description><StartTime><Timestamp dt:dt=""int"">0</Timestamp><DateUtc dt:dt=""string"">2021-06-25T09:20:59Z</DateUtc></StartTime><FrequencyChanges><FrequencyChange><Frequency dt:dt=""r8"">3312714</Frequency><Timestamp dt:dt=""r8"">17564397125</Timestamp><Current dt:dt=""r8"">0</Current><DateUtc dt:dt=""string"">2021-06-25T09:20:59Z</DateUtc></FrequencyChange></FrequencyChanges></Clock>\n",SVO-001231-1,59.893,1.0.0.130,1,black,black,black,black,black,black,black,black,black,385152912,2.0.10.182,06-25-2021,2021/6/25 9:20,17:20:59,2.0.10.92,3,,,,,,3,1,2,3,100,98,96,94,93,91,89,87,85,,ProcTrial,,black,black,black,black,black,black,black,black,cyan,-9884,ListSess,0,,-999999,107,79153,{SPACE},2754,81907,0,,-999999,101,65662,9,13384,79046,,,3,1,50,54,59,63,68,72,76,81,85,
SVO,1231,1,"<?xml version=""1.0""?>\n<Clock xmlns:dt=""urn:schemas-microsoft-com:datatypes""><Description dt:dt=""string"">E-Prime Primary Realtime Clock</Description><StartTime><Timestamp dt:dt=""int"">0</Timestamp><DateUtc dt:dt=""string"">2021-06-25T09:20:59Z</DateUtc></StartTime><FrequencyChanges><FrequencyChange><Frequency dt:dt=""r8"">3312714</Frequency><Timestamp dt:dt=""r8"">17564397125</Timestamp><Current dt:dt=""r8"">0</Current><DateUtc dt:dt=""string"">2021-06-25T09:20:59Z</DateUtc></FrequencyChange></FrequencyChanges></Clock>\n",SVO-001231-1,59.893,1.0.0.130,1,black,black,black,black,black,black,black,black,black,385152912,2.0.10.182,06-25-2021,2021/6/25 9:20,17:20:59,2.0.10.92,4,,,,,,4,1,2,4,100,89,79,68,58,47,36,26,15,,ProcTrial,,cyan,black,black,black,black,black,black,black,black,-2852,ListSess,0,,-999999,109,88987,{SPACE},1167,90154,0,,-999999,101,82525,1,6352,88877,,,4,1,50,54,59,63,68,72,76,81,85,
SVO,1231,1,"<?xml version=""1.0""?>\n<Clock xmlns:dt=""urn:schemas-microsoft-com:datatypes""><Description dt:dt=""string"">E-Prime Primary Realtime Clock</Description><StartTime><Timestamp dt:dt=""int"">0</Timestamp><DateUtc dt:dt=""string"">2021-06-25T09:20:59Z</DateUtc></StartTime><FrequencyChanges><FrequencyChange><Frequency dt:dt=""r8"">3312714</Frequency><Timestamp dt:dt=""r8"">17564397125</Timestamp><Current dt:dt=""r8"">0</Current><DateUtc dt:dt=""string"">2021-06-25T09:20:59Z</DateUtc></FrequencyChange></FrequencyChanges></Clock>\n",SVO-001231-1,59.893,1.0.0.130,1,black,black,black,black,black,black,black,black,black,385152912,2.0.10.182,06-25-2021,2021/6/25 9:20,17:20:59,2.0.10.92,5,,,,,,5,1,2,5,50,56,63,69,75,81,88,94,100,,ProcTrial,,black,black,black,black,black,black,cyan,black,black,-6632,ListSess,0,,-999999,118,101008,{SPACE},927,101935,0,,-999999,85,90757,7,10132,100889,,,5,1,100,94,88,81,75,69,63,56,50,
SVO,1231,1,"<?xml version=""1.0""?>\n<Clock xmlns:dt=""urn:schemas-microsoft-com:datatypes""><Description dt:dt=""string"">E-Prime Primary Realtime Clock</Description><StartTime><Timestamp dt:dt=""int"">0</Timestamp><DateUtc dt:dt=""string"">2021-06-25T09:20:59Z</DateUtc></StartTime><FrequencyChanges><FrequencyChange><Frequency dt:dt=""r8"">3312714</Frequency><Timestamp dt:dt=""r8"">17564397125</Timestamp><Current dt:dt=""r8"">0</Current><DateUtc dt:dt=""string"">2021-06-25T09:20:59Z</DateUtc></FrequencyChange></FrequencyChanges></Clock>\n",SVO-001231-1,59.893,1.0.0.130,1,black,black,black,black,black,black,black,black,black,385152912,2.0.10.182,06-25-2021,2021/6/25 9:20,17:20:59,2.0.10.92,6,,,,,,6,1,2,6,50,54,59,63,68,72,76,81,85,,ProcTrial,,black,black,black,black,black,black,cyan,black,black,701,ListSess,0,,-999999,106,105466,{SPACE},415,105881,0,,-999999,101,102561,7,2799,105360,,,6,1,100,98,96,94,93,91,89,87,85,
SVO,1231,1,"<?xml version=""1.0""?>\n<Clock xmlns:dt=""urn:schemas-microsoft-com:datatypes""><Description dt:dt=""string"">E-Prime Primary Realtime Clock</Description><StartTime><Timestamp dt:dt=""int"">0</Timestamp><DateUtc dt:dt=""string"">2021-06-25T09:20:59Z</DateUtc></StartTime><FrequencyChanges><FrequencyChange><Frequency dt:dt=""r8"">3312714</Frequency><Timestamp dt:dt=""r8"">17564397125</Timestamp><Current dt:dt=""r8"">0</Current><DateUtc dt:dt=""string"">2021-06-25T09:20:59Z</DateUtc></FrequencyChange></FrequencyChanges></Clock>\n",SVO-001231-1,59.893,1.0.0.130,1,black,black,black,black,black,black,black,black,black,385152912,2.0.10.182,06-25-2021,2021/6/25 9:20,17:20:59,2.0.10.92,7,,,,,,7,1,2,7,50,56,63,69,75,81,88,94,100,,ProcTrial,,black,black,cyan,black,black,black,black,black,black,2038,ListSess,0,,-999999,107,108071,{SPACE},1643,109714,0,,-999999,102,106502,3,1462,107964,,,7,2,100,96,93,89,85,81,78,74,70,
SVO,1231,1,"<?xml version=""1.0""?>\n<Clock xmlns:dt=""urn:schemas-microsoft-com:datatypes""><Description dt:dt=""string"">E-Prime Primary Realtime Clock</Description><StartTime><Timestamp dt:dt=""int"">0</Timestamp><DateUtc dt:dt=""string"">2021-06-25T09:20:59Z</DateUtc></StartTime><FrequencyChanges><FrequencyChange><Frequency dt:dt=""r8"">3312714</Frequency><Timestamp dt:dt=""r8"">17564397125</Timestamp><Current dt:dt=""r8"">0</Current><DateUtc dt:dt=""string"">2021-06-25T09:20:59Z</DateUtc></FrequencyChange></FrequencyChanges></Clock>\n",SVO-001231-1,59.893,1.0.0.130,1,black,black,black,black,black,black,black,black,black,385152912,2.0.10.182,06-25-2021,2021/6/25 9:20,17:20:59,2.0.10.92,8,,,,,,8,1,2,8,100,99,98,96,95,94,93,91,90,,ProcTrial,,cyan,black,black,black,black,black,black,black,black,554,ListSess,0,,-999999,110,113364,{SPACE},551,113915,0,,-999999,83,110308,1,2946,113254,,,8,2,90,91,93,94,95,96,98,99,100,
SVO,1231,1,"<?xml version=""1.0""?>\n<Clock xmlns:dt=""urn:schemas-microsoft-com:datatypes""><Description dt:dt=""string"">E-Prime Primary Realtime Clock</Description><StartTime><Timestamp dt:dt=""int"">0</Timestamp><DateUtc dt:dt=""string"">2021-06-25T09:20:59Z</DateUtc></StartTime><FrequencyChanges><FrequencyChange><Frequency dt:dt=""r8"">3312714</Frequency><Timestamp dt:dt=""r8"">17564397125</Timestamp><Current dt:dt=""r8"">0</Current><DateUtc dt:dt=""string"">2021-06-25T09:20:59Z</DateUtc></FrequencyChange></FrequencyChanges></Clock>\n",SVO-001231-1,59.893,1.0.0.130,1,black,black,black,black,black,black,black,black,black,385152912,2.0.10.182,06-25-2021,2021/6/25 9:20,17:20:59,2.0.10.92,9,,,,,,9,1,2,9,70,74,78,81,85,89,93,96,100,,ProcTrial,,black,black,black,black,black,black,black,black,cyan,-2449,ListSess,0,,-999999,110,120593,{SPACE},547,121140,0,,-999999,101,114533,9,5949,120482,,,9,2,100,94,88,81,75,69,63,56,50,
SVO,1231,1,"<?xml version=""1.0""?>\n<Clock xmlns:dt=""urn:schemas-microsoft-com:datatypes""><Description dt:dt=""string"">E-Prime Primary Realtime Clock</Description><StartTime><Timestamp dt:dt=""int"">0</Timestamp><DateUtc dt:dt=""string"">2021-06-25T09:20:59Z</DateUtc></StartTime><FrequencyChanges><FrequencyChange><Frequency dt:dt=""r8"">3312714</Frequency><Timestamp dt:dt=""r8"">17564397125</Timestamp><Current dt:dt=""r8"">0</Current><DateUtc dt:dt=""string"">2021-06-25T09:20:59Z</DateUtc></FrequencyChange></FrequencyChanges></Clock>\n",SVO-001231-1,59.893,1.0.0.130,1,black,black,black,black,black,black,black,black,black,385152912,2.0.10.182,06-25-2021,2021/6/25 9:20,17:20:59,2.0.10.92,10,,,,,,10,1,2,10,70,74,78,81,85,89,93,96,100,,ProcTrial,,black,black,black,black,black,black,cyan,black,black,2111,ListSess,0,,-999999,112,123248,{SPACE},1244,124492,0,,-999999,85,121746,7,1389,123135,,,10,2,100,99,98,96,95,94,93,91,90,
SVO,1231,1,"<?xml version=""1.0""?>\n<Clock xmlns:dt=""urn:schemas-microsoft-com:datatypes""><Description dt:dt=""string"">E-Prime Primary Realtime Clock</Description><StartTime><Timestamp dt:dt=""int"">0</Timestamp><DateUtc dt:dt=""string"">2021-06-25T09:20:59Z</DateUtc></StartTime><FrequencyChanges><FrequencyChange><Frequency dt:dt=""r8"">3312714</Frequency><Timestamp dt:dt=""r8"">17564397125</Timestamp><Current dt:dt=""r8"">0</Current><DateUtc dt:dt=""string"">2021-06-25T09:20:59Z</DateUtc></FrequencyChange></FrequencyChanges></Clock>\n",SVO-001231-1,59.893,1.0.0.130,1,black,black,black,black,black,black,black,black,black,385152912,2.0.10.182,06-25-2021,2021/6/25 9:20,17:20:59,2.0.10.92,11,,,,,,11,1,2,11,100,96,93,89,85,81,78,74,70,,ProcTrial,,black,black,cyan,black,black,black,black,black,black,2372,ListSess,0,,-999999,107,126354,{SPACE},3452,129806,0,,-999999,101,125118,3,1128,126246,,,11,2,70,74,78,81,85,89,93,96,100,
SVO,1231,1,"<?xml version=""1.0""?>\n<Clock xmlns:dt=""urn:schemas-microsoft-com:datatypes""><Description dt:dt=""string"">E-Prime Primary Realtime Clock</Description><StartTime><Timestamp dt:dt=""int"">0</Timestamp><DateUtc dt:dt=""string"">2021-06-25T09:20:59Z</DateUtc></StartTime><FrequencyChanges><FrequencyChange><Frequency dt:dt=""r8"">3312714</Frequency><Timestamp dt:dt=""r8"">17564397125</Timestamp><Current dt:dt=""r8"">0</Current><DateUtc dt:dt=""string"">2021-06-25T09:20:59Z</DateUtc></FrequencyChange></FrequencyChanges></Clock>\n",SVO-001231-1,59.893,1.0.0.130,1,black,black,black,black,black,black,black,black,black,385152912,2.0.10.182,06-25-2021,2021/6/25 9:20,17:20:59,2.0.10.92,12,,,,,,12,1,2,12,100,99,98,96,95,94,93,91,90,,ProcTrial,,black,black,cyan,black,black,black,black,black,black,1242,ListSess,0,,-999999,112,132799,{SPACE},1456,134255,0,,-999999,101,130428,3,2258,132686,,,12,2,50,56,63,69,75,81,88,94,100,
SVO,1231,1,"<?xml version=""1.0""?>\n<Clock xmlns:dt=""urn:schemas-microsoft-com:datatypes""><Description dt:dt=""string"">E-Prime Primary Realtime Clock</Description><StartTime><Timestamp dt:dt=""int"">0</Timestamp><DateUtc dt:dt=""string"">2021-06-25T09:20:59Z</DateUtc></StartTime><FrequencyChanges><FrequencyChange><Frequency dt:dt=""r8"">3312714</Frequency><Timestamp dt:dt=""r8"">17564397125</Timestamp><Current dt:dt=""r8"">0</Current><DateUtc dt:dt=""string"">2021-06-25T09:20:59Z</DateUtc></FrequencyChange></FrequencyChanges></Clock>\n",SVO-001231-1,59.893,1.0.0.130,1,black,black,black,black,black,black,black,black,black,385152912,2.0.10.182,06-25-2021,2021/6/25 9:20,17:20:59,2.0.10.92,13,,,,,,13,1,2,13,100,94,88,81,75,69,63,56,50,,ProcTrial,,black,cyan,black,black,black,black,black,black,black,2534,ListSess,0,,-999999,118,135954,{SPACE},662,136616,0,,-999999,101,134869,2,966,135835,,,13,2,50,56,63,69,75,81,88,94,100,
SVO,1231,1,"<?xml version=""1.0""?>\n<Clock xmlns:dt=""urn:schemas-microsoft-com:datatypes""><Description dt:dt=""string"">E-Prime Primary Realtime Clock</Description><StartTime><Timestamp dt:dt=""int"">0</Timestamp><DateUtc dt:dt=""string"">2021-06-25T09:20:59Z</DateUtc></StartTime><FrequencyChanges><FrequencyChange><Frequency dt:dt=""r8"">3312714</Frequency><Timestamp dt:dt=""r8"">17564397125</Timestamp><Current dt:dt=""r8"">0</Current><DateUtc dt:dt=""string"">2021-06-25T09:20:59Z</DateUtc></FrequencyChange></FrequencyChanges></Clock>\n",SVO-001231-1,59.893,1.0.0.130,1,black,black,black,black,black,black,black,black,black,385152912,2.0.10.182,06-25-2021,2021/6/25 9:20,17:20:59,2.0.10.92,14,,,,,,14,1,2,14,90,91,93,94,95,96,98,99,100,,ProcTrial,,black,black,black,black,black,black,black,cyan,black,690,ListSess,0,,-999999,111,140162,{SPACE},694,140856,0,,-999999,101,137240,8,2810,140050,,,14,2,100,96,93,89,85,81,78,74,70,
SVO,1231,1,"<?xml version=""1.0""?>\n<Clock xmlns:dt=""urn:schemas-microsoft-com:datatypes""><Description dt:dt=""string"">E-Prime Primary Realtime Clock</Description><StartTime><Timestamp dt:dt=""int"">0</Timestamp><DateUtc dt:dt=""string"">2021-06-25T09:20:59Z</DateUtc></StartTime><FrequencyChanges><FrequencyChange><Frequency dt:dt=""r8"">3312714</Frequency><Timestamp dt:dt=""r8"">17564397125</Timestamp><Current dt:dt=""r8"">0</Current><DateUtc dt:dt=""string"">2021-06-25T09:20:59Z</DateUtc></FrequencyChange></FrequencyChanges></Clock>\n",SVO-001231-1,59.893,1.0.0.130,1,black,black,black,black,black,black,black,black,black,385152912,2.0.10.182,06-25-2021,2021/6/25 9:20,17:20:59,2.0.10.92,15,0.1944444,0.3888889,0.8055556,0.6041667,999,15,1,2,15,100,94,88,81,75,69,63,56,50,80.66666,ProcTrial,,cyan,black,black,black,black,black,black,black,black,1903,ListSess,0,,-999999,122,143201,{SPACE},1115,144316,0,,-999999,101,141481,1,1597,143078,1.069767,2,15,2,90,91,93,94,95,96,98,99,100,78.66666
SVO,1241,1,"<?xml version=""1.0""?>\n<Clock xmlns:dt=""urn:schemas-microsoft-com:datatypes""><Description dt:dt=""string"">E-Prime Primary Realtime Clock</Description><StartTime><Timestamp dt:dt=""int"">0</Timestamp><DateUtc dt:dt=""string"">2021-07-11T10:14:19Z</DateUtc></StartTime><FrequencyChanges><FrequencyChange><Frequency dt:dt=""r8"">3312734</Frequency><Timestamp dt:dt=""r8"">19838570627</Timestamp><Current dt:dt=""r8"">0</Current><DateUtc dt:dt=""string"">2021-07-11T10:14:19Z</DateUtc></FrequencyChange></FrequencyChanges></Clock>\n",SVO-001241-1,59.893,1.0.0.131,1,black,black,black,black,black,black,black,black,black,-1635633012,2.0.10.182,07-11-2021,2021/7/11 10:14,18:14:19,2.0.10.92,1,,,,,,1,1,2,1,85,76,68,59,50,41,33,24,15,,ProcTrial,,black,cyan,black,black,black,black,black,black,black,-18582,ListSess,0,,-999999,123,42917,{SPACE},3135,46052,0,,-999999,135,20711,2,22082,42793,,,1,1,85,85,85,85,85,85,85,85,85,
SVO,1241,1,"<?xml version=""1.0""?>\n<Clock xmlns:dt=""urn:schemas-microsoft-com:datatypes""><Description dt:dt=""string"">E-Prime Primary Realtime Clock</Description><StartTime><Timestamp dt:dt=""int"">0</Timestamp><DateUtc dt:dt=""string"">2021-07-11T10:14:19Z</DateUtc></StartTime><FrequencyChanges><FrequencyChange><Frequency dt:dt=""r8"">3312734</Frequency><Timestamp dt:dt=""r8"">19838570627</Timestamp><Current dt:dt=""r8"">0</Current><DateUtc dt:dt=""string"">2021-07-11T10:14:19Z</DateUtc></FrequencyChange></FrequencyChanges></Clock>\n",SVO-001241-1,59.893,1.0.0.131,1,black,black,black,black,black,black,black,black,black,-1635633012,2.0.10.182,07-11-2021,2021/7/11 10:14,18:14:19,2.0.10.92,2,,,,,,2,1,2,2,15,19,24,28,33,37,41,46,50,,ProcTrial,,black,black,black,black,black,black,black,black,cyan,-11430,ListSess,0,,-999999,96,61701,{SPACE},1289,62990,0,,-999999,101,46674,9,14930,61604,,,2,1,85,87,89,91,93,94,96,98,100,
SVO,1241,1,"<?xml version=""1.0""?>\n<Clock xmlns:dt=""urn:schemas-microsoft-com:datatypes""><Description dt:dt=""string"">E-Prime Primary Realtime Clock</Description><StartTime><Timestamp dt:dt=""int"">0</Timestamp><DateUtc dt:dt=""string"">2021-07-11T10:14:19Z</DateUtc></StartTime><FrequencyChanges><FrequencyChange><Frequency dt:dt=""r8"">3312734</Frequency><Timestamp dt:dt=""r8"">19838570627</Timestamp><Current dt:dt=""r8"">0</Current><DateUtc dt:dt=""string"">2021-07-11T10:14:19Z</DateUtc></FrequencyChange></FrequencyChanges></Clock>\n",SVO-001241-1,59.893,1.0.0.131,1,black,black,black,black,black,black,black,black,black,-1635633012,2.0.10.182,07-11-2021,2021/7/11 10:14,18:14:19,2.0.10.92,3,,,,,,3,1,2,3,100,98,96,94,93,91,89,87,85,,ProcTrial,,black,black,black,black,cyan,black,black,black,black,2600,ListSess,0,,-999999,118,64606,{SPACE},502,65108,0,,-999999,84,63587,5,900,64487,,,3,1,50,54,59,63,68,72,76,81,85,
SVO,1241,1,"<?xml version=""1.0""?>\n<Clock xmlns:dt=""urn:schemas-microsoft-com:datatypes""><Description dt:dt=""string"">E-Prime Primary Realtime Clock</Description><StartTime><Timestamp dt:dt=""int"">0</Timestamp><DateUtc dt:dt=""string"">2021-07-11T10:14:19Z</DateUtc></StartTime><FrequencyChanges><FrequencyChange><Frequency dt:dt=""r8"">3312734</Frequency><Timestamp dt:dt=""r8"">19838570627</Timestamp><Current dt:dt=""r8"">0</Current><DateUtc dt:dt=""string"">2021-07-11T10:14:19Z</DateUtc></FrequencyChange></FrequencyChanges></Clock>\n",SVO-001241-1,59.893,1.0.0.131,1,black,black,black,black,black,black,black,black,black,-1635633012,2.0.10.182,07-11-2021,2021/7/11 10:14,18:14:19,2.0.10.92,4,,,,,,4,1,2,4,100,89,79,68,58,47,36,26,15,,ProcTrial,,black,black,black,cyan,black,black,black,black,black,2575,ListSess,0,,-999999,93,66743,{SPACE},634,67377,0,,-999999,101,65724,4,925,66649,,,4,1,50,54,59,63,68,72,76,81,85,
SVO,1241,1,"<?xml version=""1.0""?>\n<Clock xmlns:dt=""urn:schemas-microsoft-com:datatypes""><Description dt:dt=""string"">E-Prime Primary Realtime Clock</Description><StartTime><Timestamp dt:dt=""int"">0</Timestamp><DateUtc dt:dt=""string"">2021-07-11T10:14:19Z</DateUtc></StartTime><FrequencyChanges><FrequencyChange><Frequency dt:dt=""r8"">3312734</Frequency><Timestamp dt:dt=""r8"">19838570627</Timestamp><Current dt:dt=""r8"">0</Current><DateUtc dt:dt=""string"">2021-07-11T10:14:19Z</DateUtc></FrequencyChange></FrequencyChanges></Clock>\n",SVO-001241-1,59.893,1.0.0.131,1,black,black,black,black,black,black,black,black,black,-1635633012,2.0.10.182,07-11-2021,2021/7/11 10:14,18:14:19,2.0.10.92,5,,,,,,5,1,2,5,50,56,63,69,75,81,88,94,100,,ProcTrial,,black,black,black,black,black,black,cyan,black,black,-2113,ListSess,0,,-999999,114,73722,{SPACE},542,74264,0,,-999999,101,67995,7,5613,73608,,,5,1,100,94,88,81,75,69,63,56,50,
SVO,1241,1,"<?xml version=""1.0""?>\n<Clock xmlns:dt=""urn:schemas-microsoft-com:datatypes""><Description dt:dt=""string"">E-Prime Primary Realtime Clock</Description><StartTime><Timestamp dt:dt=""int"">0</Timestamp><DateUtc dt:dt=""string"">2021-07-11T10:14:19Z</DateUtc></StartTime><FrequencyChanges><FrequencyChange><Frequency dt:dt=""r8"">3312734</Frequency><Timestamp dt:dt=""r8"">19838570627</Timestamp><Current dt:dt=""r8"">0</Current><DateUtc dt:dt=""string"">2021-07-11T10:14:19Z</DateUtc></FrequencyChange></FrequencyChanges></Clock>\n",SVO-001241-1,59.893,1.0.0.131,1,black,black,black,black,black,black,black,black,black,-1635633012,2.0.10.182,07-11-2021,2021/7/11 10:14,18:14:19,2.0.10.92,6,,,,,,6,1,2,6,50,54,59,63,68,72,76,81,85,,ProcTrial,,black,black,black,black,cyan,black,black,black,black,-1276,ListSess,0,,-999999,116,79766,{SPACE},733,80499,0,,-999999,101,74874,5,4776,79650,,,6,1,100,98,96,94,93,91,89,87,85,
SVO,1241,1,"<?xml version=""1.0""?>\n<Clock xmlns:dt=""urn:schemas-microsoft-com:datatypes""><Description dt:dt=""string"">E-Prime Primary Realtime Clock</Description><StartTime><Timestamp dt:dt=""int"">0</Timestamp><DateUtc dt:dt=""string"">2021-07-11T10:14:19Z</DateUtc></StartTime><FrequencyChanges><FrequencyChange><Frequency dt:dt=""r8"">3312734</Frequency><Timestamp dt:dt=""r8"">19838570627</Timestamp><Current dt:dt=""r8"">0</Current><DateUtc dt:dt=""string"">2021-07-11T10:14:19Z</DateUtc></FrequencyChange></FrequencyChanges></Clock>\n",SVO-001241-1,59.893,1.0.0.131,1,black,black,black,black,black,black,black,black,black,-1635633012,2.0.10.182,07-11-2021,2021/7/11 10:14,18:14:19,2.0.10.92,7,,,,,,7,1,2,7,50,56,63,69,75,81,88,94,100,,ProcTrial,,black,black,black,black,black,black,black,black,cyan,2151,ListSess,0,,-999999,102,82571,{SPACE},575,83146,0,,-999999,101,81119,9,1349,82468,,,7,2,100,96,93,89,85,81,78,74,70,
SVO,1241,1,"<?xml version=""1.0""?>\n<Clock xmlns:dt=""urn:schemas-microsoft-com:datatypes""><Description dt:dt=""string"">E-Prime Primary Realtime Clock</Description><StartTime><Timestamp dt:dt=""int"">0</Timestamp><DateUtc dt:dt=""string"">2021-07-11T10:14:19Z</DateUtc></StartTime><FrequencyChanges><FrequencyChange><Frequency dt:dt=""r8"">3312734</Frequency><Timestamp dt:dt=""r8"">19838570627</Timestamp><Current dt:dt=""r8"">0</Current><DateUtc dt:dt=""string"">2021-07-11T10:14:19Z</DateUtc></FrequencyChange></FrequencyChanges></Clock>\n",SVO-001241-1,59.893,1.0.0.131,1,black,black,black,black,black,black,black,black,black,-1635633012,2.0.10.182,07-11-2021,2021/7/11 10:14,18:14:19,2.0.10.92,8,,,,,,8,1,2,8,100,99,98,96,95,94,93,91,90,,ProcTrial,,black,cyan,black,black,black,black,black,black,black,2882,ListSess,0,,-999999,115,84491,{SPACE},496,84987,0,,-999999,101,83757,2,618,84375,,,8,2,90,91,93,94,95,96,98,99,100,
SVO,1241,1,"<?xml version=""1.0""?>\n<Clock xmlns:dt=""urn:schemas-microsoft-com:datatypes""><Description dt:dt=""string"">E-Prime Primary Realtime Clock</Description><StartTime><Timestamp dt:dt=""int"">0</Timestamp><DateUtc dt:dt=""string"">2021-07-11T10:14:19Z</DateUtc></StartTime><FrequencyChanges><FrequencyChange><Frequency dt:dt=""r8"">3312734</Frequency><Timestamp dt:dt=""r8"">19838570627</Timestamp><Current dt:dt=""r8"">0</Current><DateUtc dt:dt=""string"">2021-07-11T10:14:19Z</DateUtc></FrequencyChange></FrequencyChanges></Clock>\n",SVO-001241-1,59.893,1.0.0.131,1,black,black,black,black,black,black,black,black,black,-1635633012,2.0.10.182,07-11-2021,2021/7/11 10:14,18:14:19,2.0.10.92,9,,,,,,9,1,2,9,70,74,78,81,85,89,93,96,100,,ProcTrial,,black,black,cyan,black,black,black,black,black,black,2873,ListSess,0,,-999999,125,86345,{SPACE},511,86856,0,,-999999,84,85593,3,627,86220,,,9,2,100,94,88,81,75,69,63,56,50,
SVO,1241,1,"<?xml version=""1.0""?>\n<Clock xmlns:dt=""urn:schemas-microsoft-com:datatypes""><Description dt:dt=""string"">E-Prime Primary Realtime Clock</Description><StartTime><Timestamp dt:dt=""int"">0</Timestamp><DateUtc dt:dt=""string"">2021-07-11T10:14:19Z</DateUtc></StartTime><FrequencyChanges><FrequencyChange><Frequency dt:dt=""r8"">3312734</Frequency><Timestamp dt:dt=""r8"">19838570627</Timestamp><Current dt:dt=""r8"">0</Current><DateUtc dt:dt=""string"">2021-07-11T10:14:19Z</DateUtc></FrequencyChange></FrequencyChanges></Clock>\n",SVO-001241-1,59.893,1.0.0.131,1,black,black,black,black,black,black,black,black,black,-1635633012,2.0.10.182,07-11-2021,2021/7/11 10:14,18:14:19,2.0.10.92,10,,,,,,10,1,2,10,70,74,78,81,85,89,93,96,100,,ProcTrial,,black,black,black,black,cyan,black,black,black,black,2252,ListSess,0,,-999999,120,88849,{SPACE},359,89208,0,,-999999,101,87480,5,1248,88728,,,10,2,100,99,98,96,95,94,93,91,90,
SVO,1241,1,"<?xml version=""1.0""?>\n<Clock xmlns:dt=""urn:schemas-microsoft-com:datatypes""><Description dt:dt=""string"">E-Prime Primary Realtime Clock</Description><StartTime><Timestamp dt:dt=""int"">0</Timestamp><DateUtc dt:dt=""string"">2021-07-11T10:14:19Z</DateUtc></StartTime><FrequencyChanges><FrequencyChange><Frequency dt:dt=""r8"">3312734</Frequency><Timestamp dt:dt=""r8"">19838570627</Timestamp><Current dt:dt=""r8"">0</Current><DateUtc dt:dt=""string"">2021-07-11T10:14:19Z</DateUtc></FrequencyChange></FrequencyChanges></Clock>\n",SVO-001241-1,59.893,1.0.0.131,1,black,black,black,black,black,black,black,black,black,-1635633012,2.0.10.182,07-11-2021,2021/7/11 10:14,18:14:19,2.0.10.92,11,,,,,,11,1,2,11,100,96,93,89,85,81,78,74,70,,ProcTrial,,black,black,black,cyan,black,black,black,black,black,2991,ListSess,0,,-999999,108,90452,{SPACE},728,91180,0,,-999999,101,89834,4,509,90343,,,11,2,70,74,78,81,85,89,93,96,100,
SVO,1241,1,"<?xml version=""1.0""?>\n<Clock xmlns:dt=""urn:schemas-microsoft-com:datatypes""><Description dt:dt=""string"">E-Prime Primary Realtime Clock</Description><StartTime><Timestamp dt:dt=""int"">0</Timestamp><DateUtc dt:dt=""string"">2021-07-11T10:14:19Z</DateUtc></StartTime><FrequencyChanges><FrequencyChange><Frequency dt:dt=""r8"">3312734</Frequency><Timestamp dt:dt=""r8"">19838570627</Timestamp><Current dt:dt=""r8"">0</Current><DateUtc dt:dt=""string"">2021-07-11T10:14:19Z</DateUtc></FrequencyChange></FrequencyChanges></Clock>\n",SVO-001241-1,59.893,1.0.0.131,1,black,black,black,black,black,black,black,black,black,-1635633012,2.0.10.182,07-11-2021,2021/7/11 10:14,18:14:19,2.0.10.92,12,,,,,,12,1,2,12,100,99,98,96,95,94,93,91,90,,ProcTrial,,cyan,black,black,black,black,black,black,black,black,3019,ListSess,0,,-999999,120,92405,{SPACE},470,92875,0,,-999999,101,91804,1,481,92285,,,12,2,50,56,63,69,75,81,88,94,100,
SVO,1241,1,"<?xml version=""1.0""?>\n<Clock xmlns:dt=""urn:schemas-microsoft-com:datatypes""><Description dt:dt=""string"">E-Prime Primary Realtime Clock</Description><StartTime><Timestamp dt:dt=""int"">0</Timestamp><DateUtc dt:dt=""string"">2021-07-11T10:14:19Z</DateUtc></StartTime><FrequencyChanges><FrequencyChange><Frequency dt:dt=""r8"">3312734</Frequency><Timestamp dt:dt=""r8"">19838570627</Timestamp><Current dt:dt=""r8"">0</Current><DateUtc dt:dt=""string"">2021-07-11T10:14:19Z</DateUtc></FrequencyChange></FrequencyChanges></Clock>\n",SVO-001241-1,59.893,1.0.0.131,1,black,black,black,black,black,black,black,black,black,-1635633012,2.0.10.182,07-11-2021,2021/7/11 10:14,18:14:19,2.0.10.92,13,,,,,,13,1,2,13,100,94,88,81,75,69,63,56,50,,ProcTrial,,black,black,black,black,black,black,black,cyan,black,3099,ListSess,0,,-999999,116,94008,{SPACE},583,94591,0,,-999999,101,93491,8,401,93892,,,13,2,50,56,63,69,75,81,88,94,100,
SVO,1241,1,"<?xml version=""1.0""?>\n<Clock xmlns:dt=""urn:schemas-microsoft-com:datatypes""><Description dt:dt=""string"">E-Prime Primary Realtime Clock</Description><StartTime><Timestamp dt:dt=""int"">0</Timestamp><DateUtc dt:dt=""string"">2021-07-11T10:14:19Z</DateUtc></StartTime><FrequencyChanges><FrequencyChange><Frequency dt:dt=""r8"">3312734</Frequency><Timestamp dt:dt=""r8"">19838570627</Timestamp><Current dt:dt=""r8"">0</Current><DateUtc dt:dt=""string"">2021-07-11T10:14:19Z</DateUtc></FrequencyChange></FrequencyChanges></Clock>\n",SVO-001241-1,59.893,1.0.0.131,1,black,black,black,black,black,black,black,black,black,-1635633012,2.0.10.182,07-11-2021,2021/7/11 10:14,18:14:19,2.0.10.92,14,,,,,,14,1,2,14,90,91,93,94,95,96,98,99,100,,ProcTrial,,black,black,black,black,black,black,black,black,cyan,2671,ListSess,0,,-999999,90,96129,{SPACE},987,97116,0,,-999999,101,95210,9,829,96039,,,14,2,100,96,93,89,85,81,78,74,70,
SVO,1241,1,"<?xml version=""1.0""?>\n<Clock xmlns:dt=""urn:schemas-microsoft-com:datatypes""><Description dt:dt=""string"">E-Prime Primary Realtime Clock</Description><StartTime><Timestamp dt:dt=""int"">0</Timestamp><DateUtc dt:dt=""string"">2021-07-11T10:14:19Z</DateUtc></StartTime><FrequencyChanges><FrequencyChange><Frequency dt:dt=""r8"">3312734</Frequency><Timestamp dt:dt=""r8"">19838570627</Timestamp><Current dt:dt=""r8"">0</Current><DateUtc dt:dt=""string"">2021-07-11T10:14:19Z</DateUtc></FrequencyChange></FrequencyChanges></Clock>\n",SVO-001241-1,59.893,1.0.0.131,1,black,black,black,black,black,black,black,black,black,-1635633012,2.0.10.182,07-11-2021,2021/7/11 10:14,18:14:19,2.0.10.92,15,0.3888889,0.4444444,0.6111111,0.6041667,999,15,1,2,15,100,94,88,81,75,69,63,56,50,73.83334,ProcTrial,,black,black,black,black,black,black,black,cyan,black,2164,ListSess,0,,-999999,99,99168,{SPACE},544,99712,0,,-999999,101,97732,8,1336,99068,0.8313955,2,15,2,90,91,93,94,95,96,98,99,100,78.66666
SVO,1301,1,"<?xml version=""1.0""?>\n<Clock xmlns:dt=""urn:schemas-microsoft-com:datatypes""><Description dt:dt=""string"">E-Prime Primary Realtime Clock</Description><StartTime><Timestamp dt:dt=""int"">0</Timestamp><DateUtc dt:dt=""string"">2021-07-26T07:37:59Z</DateUtc></StartTime><FrequencyChanges><FrequencyChange><Frequency dt:dt=""r8"">3312714</Frequency><Timestamp dt:dt=""r8"">13987185552</Timestamp><Current dt:dt=""r8"">0</Current><DateUtc dt:dt=""string"">2021-07-26T07:37:59Z</DateUtc></FrequencyChange></FrequencyChanges></Clock>\n",SVO-001301-1,59.892,1.0.0.147,1,black,black,black,black,black,black,black,black,black,1102919593,2.0.10.182,07-26-2021,2021/7/26 7:37,15:37:59,2.0.10.92,1,,,,,,1,1,2,1,85,76,68,59,50,41,33,24,15,,ProcTrial,,cyan,black,black,black,black,black,black,black,black,-16528,ListSess,0,,-999999,124,44659,{SPACE},2135,46794,0,,-999999,135,24506,1,20028,44534,,,1,1,85,85,85,85,85,85,85,85,85,
SVO,1301,1,"<?xml version=""1.0""?>\n<Clock xmlns:dt=""urn:schemas-microsoft-com:datatypes""><Description dt:dt=""string"">E-Prime Primary Realtime Clock</Description><StartTime><Timestamp dt:dt=""int"">0</Timestamp><DateUtc dt:dt=""string"">2021-07-26T07:37:59Z</DateUtc></StartTime><FrequencyChanges><FrequencyChange><Frequency dt:dt=""r8"">3312714</Frequency><Timestamp dt:dt=""r8"">13987185552</Timestamp><Current dt:dt=""r8"">0</Current><DateUtc dt:dt=""string"">2021-07-26T07:37:59Z</DateUtc></FrequencyChange></FrequencyChanges></Clock>\n",SVO-001301-1,59.892,1.0.0.147,1,black,black,black,black,black,black,black,black,black,1102919593,2.0.10.182,07-26-2021,2021/7/26 7:37,15:37:59,2.0.10.92,2,,,,,,2,1,2,2,15,19,24,28,33,37,41,46,50,,ProcTrial,black,black,black,black,black,black,black,black,black,cyan,-406,ListSess,0,,-999999,117,62023,{SPACE},728,62751,0,,-999999,103,57999,9,3906,61905,,,2,1,85,87,89,91,93,94,96,98,100,
SVO,1301,1,"<?xml version=""1.0""?>\n<Clock xmlns:dt=""urn:schemas-microsoft-com:datatypes""><Description dt:dt=""string"">E-Prime Primary Realtime Clock</Description><StartTime><Timestamp dt:dt=""int"">0</Timestamp><DateUtc dt:dt=""string"">2021-07-26T07:37:59Z</DateUtc></StartTime><FrequencyChanges><FrequencyChange><Frequency dt:dt=""r8"">3312714</Frequency><Timestamp dt:dt=""r8"">13987185552</Timestamp><Current dt:dt=""r8"">0</Current><DateUtc dt:dt=""string"">2021-07-26T07:37:59Z</DateUtc></FrequencyChange></FrequencyChanges></Clock>\n",SVO-001301-1,59.892,1.0.0.147,1,black,black,black,black,black,black,black,black,black,1102919593,2.0.10.182,07-26-2021,2021/7/26 7:37,15:37:59,2.0.10.92,3,,,,,,3,1,2,3,100,98,96,94,93,91,89,87,85,,ProcTrial,,black,black,black,black,black,black,black,black,cyan,-1000,ListSess,0,,-999999,108,67984,{SPACE},540,68524,0,,-999999,101,63375,9,4500,67875,,,3,1,50,54,59,63,68,72,76,81,85,
SVO,1301,1,"<?xml version=""1.0""?>\n<Clock xmlns:dt=""urn:schemas-microsoft-com:datatypes""><Description dt:dt=""string"">E-Prime Primary Realtime Clock</Description><StartTime><Timestamp dt:dt=""int"">0</Timestamp><DateUtc dt:dt=""string"">2021-07-26T07:37:59Z</DateUtc></StartTime><FrequencyChanges><FrequencyChange><Frequency dt:dt=""r8"">3312714</Frequency><Timestamp dt:dt=""r8"">13987185552</Timestamp><Current dt:dt=""r8"">0</Current><DateUtc dt:dt=""string"">2021-07-26T07:37:59Z</DateUtc></FrequencyChange></FrequencyChanges></Clock>\n",SVO-001301-1,59.892,1.0.0.147,1,black,black,black,black,black,black,black,black,black,1102919593,2.0.10.182,07-26-2021,2021/7/26 7:37,15:37:59,2.0.10.92,4,,,,,,4,1,2,4,100,89,79,68,58,47,36,26,15,,ProcTrial,,cyan,black,black,black,black,black,black,black,black,-5210,ListSess,0,,-999999,122,77968,{SPACE},1994,79962,0,,-999999,101,69136,1,8710,77846,,,4,1,50,54,59,63,68,72,76,81,85,
SVO,1301,1,"<?xml version=""1.0""?>\n<Clock xmlns:dt=""urn:schemas-microsoft-com:datatypes""><Description dt:dt=""string"">E-Prime Primary Realtime Clock</Description><StartTime><Timestamp dt:dt=""int"">0</Timestamp><DateUtc dt:dt=""string"">2021-07-26T07:37:59Z</DateUtc></StartTime><FrequencyChanges><FrequencyChange><Frequency dt:dt=""r8"">3312714</Frequency><Timestamp dt:dt=""r8"">13987185552</Timestamp><Current dt:dt=""r8"">0</Current><DateUtc dt:dt=""string"">2021-07-26T07:37:59Z</DateUtc></FrequencyChange></FrequencyChanges></Clock>\n",SVO-001301-1,59.892,1.0.0.147,1,black,black,black,black,black,black,black,black,black,1102919593,2.0.10.182,07-26-2021,2021/7/26 7:37,15:37:59,2.0.10.92,5,,,,,,5,1,2,5,50,56,63,69,75,81,88,94,100,,ProcTrial,,black,black,black,black,cyan,black,black,black,black,-4406,ListSess,0,,-999999,108,88587,{SPACE},403,88990,0,,-999999,101,80573,5,7906,88479,,,5,1,100,94,88,81,75,69,63,56,50,
SVO,1301,1,"<?xml version=""1.0""?>\n<Clock xmlns:dt=""urn:schemas-microsoft-com:datatypes""><Description dt:dt=""string"">E-Prime Primary Realtime Clock</Description><StartTime><Timestamp dt:dt=""int"">0</Timestamp><DateUtc dt:dt=""string"">2021-07-26T07:37:59Z</DateUtc></StartTime><FrequencyChanges><FrequencyChange><Frequency dt:dt=""r8"">3312714</Frequency><Timestamp dt:dt=""r8"">13987185552</Timestamp><Current dt:dt=""r8"">0</Current><DateUtc dt:dt=""string"">2021-07-26T07:37:59Z</DateUtc></FrequencyChange></FrequencyChanges></Clock>\n",SVO-001301-1,59.892,1.0.0.147,1,black,black,black,black,black,black,black,black,black,1102919593,2.0.10.182,07-26-2021,2021/7/26 7:37,15:37:59,2.0.10.92,6,,,,,,6,1,2,6,50,54,59,63,68,72,76,81,85,,ProcTrial,,cyan,black,black,black,black,black,black,black,black,-5163,ListSess,0,,-999999,119,98372,{SPACE},65,98437,0,,-999999,84,89589,1,8663,98252,,,6,1,100,98,96,94,93,91,89,87,85,
SVO,1301,1,"<?xml version=""1.0""?>\n<Clock xmlns:dt=""urn:schemas-microsoft-com:datatypes""><Description dt:dt=""string"">E-Prime Primary Realtime Clock</Description><StartTime><Timestamp dt:dt=""int"">0</Timestamp><DateUtc dt:dt=""string"">2021-07-26T07:37:59Z</DateUtc></StartTime><FrequencyChanges><FrequencyChange><Frequency dt:dt=""r8"">3312714</Frequency><Timestamp dt:dt=""r8"">13987185552</Timestamp><Current dt:dt=""r8"">0</Current><DateUtc dt:dt=""string"">2021-07-26T07:37:59Z</DateUtc></FrequencyChange></FrequencyChanges></Clock>\n",SVO-001301-1,59.892,1.0.0.147,1,black,black,black,black,black,black,black,black,black,1102919593,2.0.10.182,07-26-2021,2021/7/26 7:37,15:37:59,2.0.10.92,7,,,,,,7,1,2,7,50,56,63,69,75,81,88,94,100,,ProcTrial,,cyan,black,black,black,black,black,black,black,black,2528,ListSess,0,,-999999,96,100125,{SPACE},100,100225,0,,-999999,101,99056,1,972,100028,,,7,2,100,96,93,89,85,81,78,74,70,
SVO,1301,1,"<?xml version=""1.0""?>\n<Clock xmlns:dt=""urn:schemas-microsoft-com:datatypes""><Description dt:dt=""string"">E-Prime Primary Realtime Clock</Description><StartTime><Timestamp dt:dt=""int"">0</Timestamp><DateUtc dt:dt=""string"">2021-07-26T07:37:59Z</DateUtc></StartTime><FrequencyChanges><FrequencyChange><Frequency dt:dt=""r8"">3312714</Frequency><Timestamp dt:dt=""r8"">13987185552</Timestamp><Current dt:dt=""r8"">0</Current><DateUtc dt:dt=""string"">2021-07-26T07:37:59Z</DateUtc></FrequencyChange></FrequencyChanges></Clock>\n",SVO-001301-1,59.892,1.0.0.147,1,black,black,black,black,black,black,black,black,black,1102919593,2.0.10.182,07-26-2021,2021/7/26 7:37,15:37:59,2.0.10.92,8,,,,,,8,1,2,8,100,99,98,96,95,94,93,91,90,,ProcTrial,,black,black,black,black,black,black,black,black,cyan,245,ListSess,0,,-999999,100,104182,{SPACE},96,104278,0,,-999999,84,100826,9,3255,104081,,,8,2,90,91,93,94,95,96,98,99,100,
SVO,1301,1,"<?xml version=""1.0""?>\n<Clock xmlns:dt=""urn:schemas-microsoft-com:datatypes""><Description dt:dt=""string"">E-Prime Primary Realtime Clock</Description><StartTime><Timestamp dt:dt=""int"">0</Timestamp><DateUtc dt:dt=""string"">2021-07-26T07:37:59Z</DateUtc></StartTime><FrequencyChanges><FrequencyChange><Frequency dt:dt=""r8"">3312714</Frequency><Timestamp dt:dt=""r8"">13987185552</Timestamp><Current dt:dt=""r8"">0</Current><DateUtc dt:dt=""string"">2021-07-26T07:37:59Z</DateUtc></FrequencyChange></FrequencyChanges></Clock>\n",SVO-001301-1,59.892,1.0.0.147,1,black,black,black,black,black,black,black,black,black,1102919593,2.0.10.182,07-26-2021,2021/7/26 7:37,15:37:59,2.0.10.92,9,,,,,,9,1,2,9,70,74,78,81,85,89,93,96,100,,ProcTrial,,cyan,black,black,black,black,black,black,black,black,1425,ListSess,0,,-999999,112,107071,{SPACE},15,107086,0,,-999999,84,104883,1,2075,106958,,,9,2,100,94,88,81,75,69,63,56,50,
SVO,1301,1,"<?xml version=""1.0""?>\n<Clock xmlns:dt=""urn:schemas-microsoft-com:datatypes""><Description dt:dt=""string"">E-Prime Primary Realtime Clock</Description><StartTime><Timestamp dt:dt=""int"">0</Timestamp><DateUtc dt:dt=""string"">2021-07-26T07:37:59Z</DateUtc></StartTime><FrequencyChanges><FrequencyChange><Frequency dt:dt=""r8"">3312714</Frequency><Timestamp dt:dt=""r8"">13987185552</Timestamp><Current dt:dt=""r8"">0</Current><DateUtc dt:dt=""string"">2021-07-26T07:37:59Z</DateUtc></FrequencyChange></FrequencyChanges></Clock>\n",SVO-001301-1,59.892,1.0.0.147,1,black,black,black,black,black,black,black,black,black,1102919593,2.0.10.182,07-26-2021,2021/7/26 7:37,15:37:59,2.0.10.92,10,,,,,,10,1,2,10,70,74,78,81,85,89,93,96,100,,ProcTrial,,cyan,black,black,black,black,black,black,black,black,2175,ListSess,0,,-999999,111,109141,{SPACE},32,109173,0,,-999999,101,107705,1,1325,109030,,,10,2,100,99,98,96,95,94,93,91,90,
SVO,1301,1,"<?xml version=""1.0""?>\n<Clock xmlns:dt=""urn:schemas-microsoft-com:datatypes""><Description dt:dt=""string"">E-Prime Primary Realtime Clock</Description><StartTime><Timestamp dt:dt=""int"">0</Timestamp><DateUtc dt:dt=""string"">2021-07-26T07:37:59Z</DateUtc></StartTime><FrequencyChanges><FrequencyChange><Frequency dt:dt=""r8"">3312714</Frequency><Timestamp dt:dt=""r8"">13987185552</Timestamp><Current dt:dt=""r8"">0</Current><DateUtc dt:dt=""string"">2021-07-26T07:37:59Z</DateUtc></FrequencyChange></FrequencyChanges></Clock>\n",SVO-001301-1,59.892,1.0.0.147,1,black,black,black,black,black,black,black,black,black,1102919593,2.0.10.182,07-26-2021,2021/7/26 7:37,15:37:59,2.0.10.92,11,,,,,,11,1,2,11,100,96,93,89,85,81,78,74,70,,ProcTrial,,cyan,black,black,black,black,black,black,black,black,1229,ListSess,0,,-999999,117,112180,{SPACE},42,112222,0,,-999999,101,109792,1,2271,112063,,,11,2,70,74,78,81,85,89,93,96,100,
SVO,1301,1,"<?xml version=""1.0""?>\n<Clock xmlns:dt=""urn:schemas-microsoft-com:datatypes""><Description dt:dt=""string"">E-Prime Primary Realtime Clock</Description><StartTime><Timestamp dt:dt=""int"">0</Timestamp><DateUtc dt:dt=""string"">2021-07-26T07:37:59Z</DateUtc></StartTime><FrequencyChanges><FrequencyChange><Frequency dt:dt=""r8"">3312714</Frequency><Timestamp dt:dt=""r8"">13987185552</Timestamp><Current dt:dt=""r8"">0</Current><DateUtc dt:dt=""string"">2021-07-26T07:37:59Z</DateUtc></FrequencyChange></FrequencyChanges></Clock>\n",SVO-001301-1,59.892,1.0.0.147,1,black,black,black,black,black,black,black,black,black,1102919593,2.0.10.182,07-26-2021,2021/7/26 7:37,15:37:59,2.0.10.92,12,,,,,,12,1,2,12,100,99,98,96,95,94,93,91,90,,ProcTrial,,cyan,black,black,black,black,black,black,black,black,2422,ListSess,0,,-999999,124,114050,{SPACE},63,114113,0,,-999999,102,112848,1,1078,113926,,,12,2,50,56,63,69,75,81,88,94,100,
SVO,1301,1,"<?xml version=""1.0""?>\n<Clock xmlns:dt=""urn:schemas-microsoft-com:datatypes""><Description dt:dt=""string"">E-Prime Primary Realtime Clock</Description><StartTime><Timestamp dt:dt=""int"">0</Timestamp><DateUtc dt:dt=""string"">2021-07-26T07:37:59Z</DateUtc></StartTime><FrequencyChanges><FrequencyChange><Frequency dt:dt=""r8"">3312714</Frequency><Timestamp dt:dt=""r8"">13987185552</Timestamp><Current dt:dt=""r8"">0</Current><DateUtc dt:dt=""string"">2021-07-26T07:37:59Z</DateUtc></FrequencyChange></FrequencyChanges></Clock>\n",SVO-001301-1,59.892,1.0.0.147,1,black,black,black,black,black,black,black,black,black,1102919593,2.0.10.182,07-26-2021,2021/7/26 7:37,15:37:59,2.0.10.92,13,,,,,,13,1,2,13,100,94,88,81,75,69,63,56,50,,ProcTrial,,black,black,black,black,black,black,black,black,cyan,-875,ListSess,0,,-999999,116,119226,{SPACE},337,119563,0,,-999999,101,114734,9,4375,119109,,,13,2,50,56,63,69,75,81,88,94,100,
SVO,1301,1,"<?xml version=""1.0""?>\n<Clock xmlns:dt=""urn:schemas-microsoft-com:datatypes""><Description dt:dt=""string"">E-Prime Primary Realtime Clock</Description><StartTime><Timestamp dt:dt=""int"">0</Timestamp><DateUtc dt:dt=""string"">2021-07-26T07:37:59Z</DateUtc></StartTime><FrequencyChanges><FrequencyChange><Frequency dt:dt=""r8"">3312714</Frequency><Timestamp dt:dt=""r8"">13987185552</Timestamp><Current dt:dt=""r8"">0</Current><DateUtc dt:dt=""string"">2021-07-26T07:37:59Z</DateUtc></FrequencyChange></FrequencyChanges></Clock>\n",SVO-001301-1,59.892,1.0.0.147,1,black,black,black,black,black,black,black,black,black,1102919593,2.0.10.182,07-26-2021,2021/7/26 7:37,15:37:59,2.0.10.92,14,,,,,,14,1,2,14,90,91,93,94,95,96,98,99,100,,ProcTrial,,black,black,black,black,black,black,black,black,cyan,2574,ListSess,0,,-999999,110,121213,{SPACE},65,121278,0,,-999999,101,120177,9,926,121103,,,14,2,100,96,93,89,85,81,78,74,70,
SVO,1301,1,"<?xml version=""1.0""?>\n<Clock xmlns:dt=""urn:schemas-microsoft-com:datatypes""><Description dt:dt=""string"">E-Prime Primary Realtime Clock</Description><StartTime><Timestamp dt:dt=""int"">0</Timestamp><DateUtc dt:dt=""string"">2021-07-26T07:37:59Z</DateUtc></StartTime><FrequencyChanges><FrequencyChange><Frequency dt:dt=""r8"">3312714</Frequency><Timestamp dt:dt=""r8"">13987185552</Timestamp><Current dt:dt=""r8"">0</Current><DateUtc dt:dt=""string"">2021-07-26T07:37:59Z</DateUtc></FrequencyChange></FrequencyChanges></Clock>\n",SVO-001301-1,59.892,1.0.0.147,1,black,black,black,black,black,black,black,black,black,1102919593,2.0.10.182,07-26-2021,2021/7/26 7:37,15:37:59,2.0.10.92,15,0.5694444,0.5416667,0.4305556,0.6875,999,15,1,2,15,100,94,88,81,75,69,63,56,50,74.16666,ProcTrial,,black,cyan,black,black,black,black,black,black,black,-1192,ListSess,0,,-999999,117,126706,{SPACE},43,126749,0,,-999999,101,121897,2,4692,126589,0.7435896,2,15,2,90,91,93,94,95,96,98,99,100,82.5
SVO,1311,1,"<?xml version=""1.0""?>\n<Clock xmlns:dt=""urn:schemas-microsoft-com:datatypes""><Description dt:dt=""string"">E-Prime Primary Realtime Clock</Description><StartTime><Timestamp dt:dt=""int"">0</Timestamp><DateUtc dt:dt=""string"">2021-07-26T09:24:12Z</DateUtc></StartTime><FrequencyChanges><FrequencyChange><Frequency dt:dt=""r8"">3312714</Frequency><Timestamp dt:dt=""r8"">35100636468</Timestamp><Current dt:dt=""r8"">0</Current><DateUtc dt:dt=""string"">2021-07-26T09:24:12Z</DateUtc></FrequencyChange></FrequencyChanges></Clock>\n",SVO-001311-1,59.892,1.0.0.148,1,black,black,black,black,black,black,black,black,black,741554632,2.0.10.182,07-26-2021,2021/7/26 9:24,17:24:13,2.0.10.92,1,,,,,,1,1,2,1,85,76,68,59,50,41,33,24,15,,ProcTrial,,black,black,black,black,black,black,black,black,cyan,-46546,ListSess,0,,-999999,127,70967,{SPACE},4373,75340,0,,-999999,134,20794,9,50046,70840,,,1,1,85,85,85,85,85,85,85,85,85,
SVO,1311,1,"<?xml version=""1.0""?>\n<Clock xmlns:dt=""urn:schemas-microsoft-com:datatypes""><Description dt:dt=""string"">E-Prime Primary Realtime Clock</Description><StartTime><Timestamp dt:dt=""int"">0</Timestamp><DateUtc dt:dt=""string"">2021-07-26T09:24:12Z</DateUtc></StartTime><FrequencyChanges><FrequencyChange><Frequency dt:dt=""r8"">3312714</Frequency><Timestamp dt:dt=""r8"">35100636468</Timestamp><Current dt:dt=""r8"">0</Current><DateUtc dt:dt=""string"">2021-07-26T09:24:12Z</DateUtc></FrequencyChange></FrequencyChanges></Clock>\n",SVO-001311-1,59.892,1.0.0.148,1,black,black,black,black,black,black,black,black,black,741554632,2.0.10.182,07-26-2021,2021/7/26 9:24,17:24:13,2.0.10.92,2,,,,,,2,1,2,2,15,19,24,28,33,37,41,46,50,,ProcTrial,,black,black,black,black,black,black,black,black,cyan,-3420,ListSess,0,,-999999,109,82989,{SPACE},3677,86666,0,,-999999,102,75960,9,6920,82880,,,2,1,85,87,89,91,93,94,96,98,100,
SVO,1311,1,"<?xml version=""1.0""?>\n<Clock xmlns:dt=""urn:schemas-microsoft-com:datatypes""><Description dt:dt=""string"">E-Prime Primary Realtime Clock</Description><StartTime><Timestamp dt:dt=""int"">0</Timestamp><DateUtc dt:dt=""string"">2021-07-26T09:24:12Z</DateUtc></StartTime><FrequencyChanges><FrequencyChange><Frequency dt:dt=""r8"">3312714</Frequency><Timestamp dt:dt=""r8"">35100636468</Timestamp><Current dt:dt=""r8"">0</Current><DateUtc dt:dt=""string"">2021-07-26T09:24:12Z</DateUtc></FrequencyChange></FrequencyChanges></Clock>\n",SVO-001311-1,59.892,1.0.0.148,1,black,black,black,black,black,black,black,black,black,741554632,2.0.10.182,07-26-2021,2021/7/26 9:24,17:24:13,2.0.10.92,3,,,,,,3,1,2,3,100,98,96,94,93,91,89,87,85,,ProcTrial,,black,black,black,black,black,black,black,black,cyan,-1568,ListSess,0,,-999999,107,92456,{SPACE},1391,93847,0,,-999999,101,87280,9,5068,92348,,,3,1,50,54,59,63,68,72,76,81,85,
SVO,1311,1,"<?xml version=""1.0""?>\n<Clock xmlns:dt=""urn:schemas-microsoft-com:datatypes""><Description dt:dt=""string"">E-Prime Primary Realtime Clock</Description><StartTime><Timestamp dt:dt=""int"">0</Timestamp><DateUtc dt:dt=""string"">2021-07-26T09:24:12Z</DateUtc></StartTime><FrequencyChanges><FrequencyChange><Frequency dt:dt=""r8"">3312714</Frequency><Timestamp dt:dt=""r8"">35100636468</Timestamp><Current dt:dt=""r8"">0</Current><DateUtc dt:dt=""string"">2021-07-26T09:24:12Z</DateUtc></FrequencyChange></FrequencyChanges></Clock>\n",SVO-001311-1,59.892,1.0.0.148,1,black,black,black,black,black,black,black,black,black,741554632,2.0.10.182,07-26-2021,2021/7/26 9:24,17:24:13,2.0.10.92,4,,,,,,4,1,2,4,100,89,79,68,58,47,36,26,15,,ProcTrial,,black,black,black,black,black,black,black,black,cyan,-148,ListSess,0,,-999999,125,98233,{SPACE},2358,100591,0,,-999999,101,94459,9,3648,98107,,,4,1,50,54,59,63,68,72,76,81,85,
SVO,1311,1,"<?xml version=""1.0""?>\n<Clock xmlns:dt=""urn:schemas-microsoft-com:datatypes""><Description dt:dt=""string"">E-Prime Primary Realtime Clock</Description><StartTime><Timestamp dt:dt=""int"">0</Timestamp><DateUtc dt:dt=""string"">2021-07-26T09:24:12Z</DateUtc></StartTime><FrequencyChanges><FrequencyChange><Frequency dt:dt=""r8"">3312714</Frequency><Timestamp dt:dt=""r8"">35100636468</Timestamp><Current dt:dt=""r8"">0</Current><DateUtc dt:dt=""string"">2021-07-26T09:24:12Z</DateUtc></FrequencyChange></FrequencyChanges></Clock>\n",SVO-001311-1,59.892,1.0.0.148,1,black,black,black,black,black,black,black,black,black,741554632,2.0.10.182,07-26-2021,2021/7/26 9:24,17:24:13,2.0.10.92,5,,,,,,5,1,2,5,50,56,63,69,75,81,88,94,100,,ProcTrial,,cyan,black,black,black,black,black,black,black,black,-1618,ListSess,0,,-999999,124,106448,{SPACE},402,106850,0,,-999999,101,101205,1,5118,106323,,,5,1,100,94,88,81,75,69,63,56,50,
SVO,1311,1,"<?xml version=""1.0""?>\n<Clock xmlns:dt=""urn:schemas-microsoft-com:datatypes""><Description dt:dt=""string"">E-Prime Primary Realtime Clock</Description><StartTime><Timestamp dt:dt=""int"">0</Timestamp><DateUtc dt:dt=""string"">2021-07-26T09:24:12Z</DateUtc></StartTime><FrequencyChanges><FrequencyChange><Frequency dt:dt=""r8"">3312714</Frequency><Timestamp dt:dt=""r8"">35100636468</Timestamp><Current dt:dt=""r8"">0</Current><DateUtc dt:dt=""string"">2021-07-26T09:24:12Z</DateUtc></FrequencyChange></FrequencyChanges></Clock>\n",SVO-001311-1,59.892,1.0.0.148,1,black,black,black,black,black,black,black,black,black,741554632,2.0.10.182,07-26-2021,2021/7/26 9:24,17:24:13,2.0.10.92,6,,,,,,6,1,2,6,50,54,59,63,68,72,76,81,85,,ProcTrial,,cyan,black,black,black,black,black,black,black,black,-3413,ListSess,0,,-999999,116,114495,{SPACE},327,114822,0,,-999999,101,107466,1,6913,114379,,,6,1,100,98,96,94,93,91,89,87,85,
SVO,1311,1,"<?xml version=""1.0""?>\n<Clock xmlns:dt=""urn:schemas-microsoft-com:datatypes""><Description dt:dt=""string"">E-Prime Primary Realtime Clock</Description><StartTime><Timestamp dt:dt=""int"">0</Timestamp><DateUtc dt:dt=""string"">2021-07-26T09:24:12Z</DateUtc></StartTime><FrequencyChanges><FrequencyChange><Frequency dt:dt=""r8"">3312714</Frequency><Timestamp dt:dt=""r8"">35100636468</Timestamp><Current dt:dt=""r8"">0</Current><DateUtc dt:dt=""string"">2021-07-26T09:24:12Z</DateUtc></FrequencyChange></FrequencyChanges></Clock>\n",SVO-001311-1,59.892,1.0.0.148,1,black,black,black,black,black,black,black,black,black,741554632,2.0.10.182,07-26-2021,2021/7/26 9:24,17:24:13,2.0.10.92,7,,,,,,7,1,2,7,50,56,63,69,75,81,88,94,100,,ProcTrial,,cyan,black,black,black,black,black,black,black,black,-1233,ListSess,0,,-999999,109,120289,{SPACE},284,120573,0,,-999999,101,115447,1,4733,120180,,,7,2,100,96,93,89,85,81,78,74,70,
SVO,1311,1,"<?xml version=""1.0""?>\n<Clock xmlns:dt=""urn:schemas-microsoft-com:datatypes""><Description dt:dt=""string"">E-Prime Primary Realtime Clock</Description><StartTime><Timestamp dt:dt=""int"">0</Timestamp><DateUtc dt:dt=""string"">2021-07-26T09:24:12Z</DateUtc></StartTime><FrequencyChanges><FrequencyChange><Frequency dt:dt=""r8"">3312714</Frequency><Timestamp dt:dt=""r8"">35100636468</Timestamp><Current dt:dt=""r8"">0</Current><DateUtc dt:dt=""string"">2021-07-26T09:24:12Z</DateUtc></FrequencyChange></FrequencyChanges></Clock>\n",SVO-001311-1,59.892,1.0.0.148,1,black,black,black,black,black,black,black,black,black,741554632,2.0.10.182,07-26-2021,2021/7/26 9:24,17:24:13,2.0.10.92,8,,,,,,8,1,2,8,100,99,98,96,95,94,93,91,90,,ProcTrial,,black,black,black,black,black,black,black,black,cyan,-3084,ListSess,0,,-999999,111,127886,{SPACE},908,128794,0,,-999999,101,121191,9,6584,127775,,,8,2,90,91,93,94,95,96,98,99,100,
SVO,1311,1,"<?xml version=""1.0""?>\n<Clock xmlns:dt=""urn:schemas-microsoft-com:datatypes""><Description dt:dt=""string"">E-Prime Primary Realtime Clock</Description><StartTime><Timestamp dt:dt=""int"">0</Timestamp><DateUtc dt:dt=""string"">2021-07-26T09:24:12Z</DateUtc></StartTime><FrequencyChanges><FrequencyChange><Frequency dt:dt=""r8"">3312714</Frequency><Timestamp dt:dt=""r8"">35100636468</Timestamp><Current dt:dt=""r8"">0</Current><DateUtc dt:dt=""string"">2021-07-26T09:24:12Z</DateUtc></FrequencyChange></FrequencyChanges></Clock>\n",SVO-001311-1,59.892,1.0.0.148,1,black,black,black,black,black,black,black,black,black,741554632,2.0.10.182,07-26-2021,2021/7/26 9:24,17:24:13,2.0.10.92,9,,,,,,9,1,2,9,70,74,78,81,85,89,93,96,100,,ProcTrial,,cyan,black,black,black,black,black,black,black,black,-2651,ListSess,0,,-999999,111,135667,{SPACE},736,136403,0,,-999999,101,129405,1,6151,135556,,,9,2,100,94,88,81,75,69,63,56,50,
SVO,1311,1,"<?xml version=""1.0""?>\n<Clock xmlns:dt=""urn:schemas-microsoft-com:datatypes""><Description dt:dt=""string"">E-Prime Primary Realtime Clock</Description><StartTime><Timestamp dt:dt=""int"">0</Timestamp><DateUtc dt:dt=""string"">2021-07-26T09:24:12Z</DateUtc></StartTime><FrequencyChanges><FrequencyChange><Frequency dt:dt=""r8"">3312714</Frequency><Timestamp dt:dt=""r8"">35100636468</Timestamp><Current dt:dt=""r8"">0</Current><DateUtc dt:dt=""string"">2021-07-26T09:24:12Z</DateUtc></FrequencyChange></FrequencyChanges></Clock>\n",SVO-001311-1,59.892,1.0.0.148,1,black,black,black,black,black,black,black,black,black,741554632,2.0.10.182,07-26-2021,2021/7/26 9:24,17:24:13,2.0.10.92,10,,,,,,10,1,2,10,70,74,78,81,85,89,93,96,100,,ProcTrial,,cyan,black,black,black,black,black,black,black,black,-441,ListSess,0,,-999999,116,141076,{SPACE},1423,142499,0,,-999999,101,137019,1,3941,140960,,,10,2,100,99,98,96,95,94,93,91,90,
SVO,1311,1,"<?xml version=""1.0""?>\n<Clock xmlns:dt=""urn:schemas-microsoft-com:datatypes""><Description dt:dt=""string"">E-Prime Primary Realtime Clock</Description><StartTime><Timestamp dt:dt=""int"">0</Timestamp><DateUtc dt:dt=""string"">2021-07-26T09:24:12Z</DateUtc></StartTime><FrequencyChanges><FrequencyChange><Frequency dt:dt=""r8"">3312714</Frequency><Timestamp dt:dt=""r8"">35100636468</Timestamp><Current dt:dt=""r8"">0</Current><DateUtc dt:dt=""string"">2021-07-26T09:24:12Z</DateUtc></FrequencyChange></FrequencyChanges></Clock>\n",SVO-001311-1,59.892,1.0.0.148,1,black,black,black,black,black,black,black,black,black,741554632,2.0.10.182,07-26-2021,2021/7/26 9:24,17:24:13,2.0.10.92,11,,,,,,11,1,2,11,100,96,93,89,85,81,78,74,70,,ProcTrial,,black,black,black,black,black,black,black,black,cyan,-5633,ListSess,0,,-999999,116,152363,{SPACE},1321,153684,0,,-999999,101,143113,9,9133,152246,,,11,2,70,74,78,81,85,89,93,96,100,
SVO,1311,1,"<?xml version=""1.0""?>\n<Clock xmlns:dt=""urn:schemas-microsoft-com:datatypes""><Description dt:dt=""string"">E-Prime Primary Realtime Clock</Description><StartTime><Timestamp dt:dt=""int"">0</Timestamp><DateUtc dt:dt=""string"">2021-07-26T09:24:12Z</DateUtc></StartTime><FrequencyChanges><FrequencyChange><Frequency dt:dt=""r8"">3312714</Frequency><Timestamp dt:dt=""r8"">35100636468</Timestamp><Current dt:dt=""r8"">0</Current><DateUtc dt:dt=""string"">2021-07-26T09:24:12Z</DateUtc></FrequencyChange></FrequencyChanges></Clock>\n",SVO-001311-1,59.892,1.0.0.148,1,black,black,black,black,black,black,black,black,black,741554632,2.0.10.182,07-26-2021,2021/7/26 9:24,17:24:13,2.0.10.92,12,,,,,,12,1,2,12,100,99,98,96,95,94,93,91,90,,ProcTrial,,black,black,black,black,black,black,black,black,cyan,-5392,ListSess,0,,-999999,124,163316,{SPACE},771,164087,0,,-999999,101,154300,9,8892,163192,,,12,2,50,56,63,69,75,81,88,94,100,
SVO,1311,1,"<?xml version=""1.0""?>\n<Clock xmlns:dt=""urn:schemas-microsoft-com:datatypes""><Description dt:dt=""string"">E-Prime Primary Realtime Clock</Description><StartTime><Timestamp dt:dt=""int"">0</Timestamp><DateUtc dt:dt=""string"">2021-07-26T09:24:12Z</DateUtc></StartTime><FrequencyChanges><FrequencyChange><Frequency dt:dt=""r8"">3312714</Frequency><Timestamp dt:dt=""r8"">35100636468</Timestamp><Current dt:dt=""r8"">0</Current><DateUtc dt:dt=""string"">2021-07-26T09:24:12Z</DateUtc></FrequencyChange></FrequencyChanges></Clock>\n",SVO-001311-1,59.892,1.0.0.148,1,black,black,black,black,black,black,black,black,black,741554632,2.0.10.182,07-26-2021,2021/7/26 9:24,17:24:13,2.0.10.92,13,,,,,,13,1,2,13,100,94,88,81,75,69,63,56,50,,ProcTrial,,black,black,black,black,black,black,black,black,cyan,-2937,ListSess,0,,-999999,124,171264,{SPACE},302,171566,0,,-999999,101,164702,9,6437,171139,,,13,2,50,56,63,69,75,81,88,94,100,
SVO,1311,1,"<?xml version=""1.0""?>\n<Clock xmlns:dt=""urn:schemas-microsoft-com:datatypes""><Description dt:dt=""string"">E-Prime Primary Realtime Clock</Description><StartTime><Timestamp dt:dt=""int"">0</Timestamp><DateUtc dt:dt=""string"">2021-07-26T09:24:12Z</DateUtc></StartTime><FrequencyChanges><FrequencyChange><Frequency dt:dt=""r8"">3312714</Frequency><Timestamp dt:dt=""r8"">35100636468</Timestamp><Current dt:dt=""r8"">0</Current><DateUtc dt:dt=""string"">2021-07-26T09:24:12Z</DateUtc></FrequencyChange></FrequencyChanges></Clock>\n",SVO-001311-1,59.892,1.0.0.148,1,black,black,black,black,black,black,black,black,black,741554632,2.0.10.182,07-26-2021,2021/7/26 9:24,17:24:13,2.0.10.92,14,,,,,,14,1,2,14,90,91,93,94,95,96,98,99,100,,ProcTrial,,cyan,black,black,black,black,black,black,black,black,593,ListSess,0,,-999999,115,175204,{SPACE},372,175576,0,,-999999,101,172182,1,2907,175089,,,14,2,100,96,93,89,85,81,78,74,70,
SVO,1311,1,"<?xml version=""1.0""?>\n<Clock xmlns:dt=""urn:schemas-microsoft-com:datatypes""><Description dt:dt=""string"">E-Prime Primary Realtime Clock</Description><StartTime><Timestamp dt:dt=""int"">0</Timestamp><DateUtc dt:dt=""string"">2021-07-26T09:24:12Z</DateUtc></StartTime><FrequencyChanges><FrequencyChange><Frequency dt:dt=""r8"">3312714</Frequency><Timestamp dt:dt=""r8"">35100636468</Timestamp><Current dt:dt=""r8"">0</Current><DateUtc dt:dt=""string"">2021-07-26T09:24:12Z</DateUtc></FrequencyChange></FrequencyChanges></Clock>\n",SVO-001311-1,59.892,1.0.0.148,1,black,black,black,black,black,black,black,black,black,741554632,2.0.10.182,07-26-2021,2021/7/26 9:24,17:24:13,2.0.10.92,15,1,0.5,0,0.5,999,15,1,2,15,100,94,88,81,75,69,63,56,50,44.16667,ProcTrial,,black,black,black,black,black,black,black,black,cyan,-770,ListSess,0,,-999999,121,180580,{SPACE},419,180999,0,,-999999,101,176189,9,4270,180459,-0.1372549,3,15,2,90,91,93,94,95,96,98,99,100,92.5
SVO,1321,1,"<?xml version=""1.0""?>\n<Clock xmlns:dt=""urn:schemas-microsoft-com:datatypes""><Description dt:dt=""string"">E-Prime Primary Realtime Clock</Description><StartTime><Timestamp dt:dt=""int"">0</Timestamp><DateUtc dt:dt=""string"">2021-07-28T08:58:16Z</DateUtc></StartTime><FrequencyChanges><FrequencyChange><Frequency dt:dt=""r8"">3312714</Frequency><Timestamp dt:dt=""r8"">30372319630</Timestamp><Current dt:dt=""r8"">0</Current><DateUtc dt:dt=""string"">2021-07-28T08:58:16Z</DateUtc></FrequencyChange></FrequencyChanges></Clock>\n",SVO-001321-1,59.893,1.0.0.150,1,black,black,black,black,black,black,black,black,black,308206892,2.0.10.182,07-28-2021,2021/7/28 8:58,16:58:16,2.0.10.92,1,,,,,,1,1,2,1,85,76,68,59,50,41,33,24,15,,ProcTrial,,cyan,black,black,black,black,black,black,black,black,-15558,ListSess,0,,-999999,108,40255,{SPACE},2351,42606,0,,-999999,134,21088,1,19058,40146,,,1,1,85,85,85,85,85,85,85,85,85,
SVO,1321,1,"<?xml version=""1.0""?>\n<Clock xmlns:dt=""urn:schemas-microsoft-com:datatypes""><Description dt:dt=""string"">E-Prime Primary Realtime Clock</Description><StartTime><Timestamp dt:dt=""int"">0</Timestamp><DateUtc dt:dt=""string"">2021-07-28T08:58:16Z</DateUtc></StartTime><FrequencyChanges><FrequencyChange><Frequency dt:dt=""r8"">3312714</Frequency><Timestamp dt:dt=""r8"">30372319630</Timestamp><Current dt:dt=""r8"">0</Current><DateUtc dt:dt=""string"">2021-07-28T08:58:16Z</DateUtc></FrequencyChange></FrequencyChanges></Clock>\n",SVO-001321-1,59.893,1.0.0.150,1,black,black,black,black,black,black,black,black,black,308206892,2.0.10.182,07-28-2021,2021/7/28 8:58,16:58:16,2.0.10.92,2,,,,,,2,1,2,2,15,19,24,28,33,37,41,46,50,,ProcTrial,,black,black,black,black,black,black,black,black,cyan,-9110,ListSess,0,,-999999,95,55917,{SPACE},1695,57612,0,,-999999,85,43211,9,12610,55821,,,2,1,85,87,89,91,93,94,96,98,100,
SVO,1321,1,"<?xml version=""1.0""?>\n<Clock xmlns:dt=""urn:schemas-microsoft-com:datatypes""><Description dt:dt=""string"">E-Prime Primary Realtime Clock</Description><StartTime><Timestamp dt:dt=""int"">0</Timestamp><DateUtc dt:dt=""string"">2021-07-28T08:58:16Z</DateUtc></StartTime><FrequencyChanges><FrequencyChange><Frequency dt:dt=""r8"">3312714</Frequency><Timestamp dt:dt=""r8"">30372319630</Timestamp><Current dt:dt=""r8"">0</Current><DateUtc dt:dt=""string"">2021-07-28T08:58:16Z</DateUtc></FrequencyChange></FrequencyChanges></Clock>\n",SVO-001321-1,59.893,1.0.0.150,1,black,black,black,black,black,black,black,black,black,308206892,2.0.10.182,07-28-2021,2021/7/28 8:58,16:58:16,2.0.10.92,3,,,,,,3,1,2,3,100,98,96,94,93,91,89,87,85,,ProcTrial,,black,black,black,black,black,black,black,black,cyan,-549,ListSess,0,,-999999,90,62378,{SPACE},699,63077,0,,-999999,101,58238,9,4049,62287,,,3,1,50,54,59,63,68,72,76,81,85,
SVO,1321,1,"<?xml version=""1.0""?>\n<Clock xmlns:dt=""urn:schemas-microsoft-com:datatypes""><Description dt:dt=""string"">E-Prime Primary Realtime Clock</Description><StartTime><Timestamp dt:dt=""int"">0</Timestamp><DateUtc dt:dt=""string"">2021-07-28T08:58:16Z</DateUtc></StartTime><FrequencyChanges><FrequencyChange><Frequency dt:dt=""r8"">3312714</Frequency><Timestamp dt:dt=""r8"">30372319630</Timestamp><Current dt:dt=""r8"">0</Current><DateUtc dt:dt=""string"">2021-07-28T08:58:16Z</DateUtc></FrequencyChange></FrequencyChanges></Clock>\n",SVO-001321-1,59.893,1.0.0.150,1,black,black,black,black,black,black,black,black,black,308206892,2.0.10.182,07-28-2021,2021/7/28 8:58,16:58:16,2.0.10.92,4,,,,,,4,1,2,4,100,89,79,68,58,47,36,26,15,,ProcTrial,,cyan,black,black,black,black,black,black,black,black,-710,ListSess,0,,-999999,114,68022,{SPACE},730,68752,0,,-999999,101,63697,1,4210,67907,,,4,1,50,54,59,63,68,72,76,81,85,
SVO,1321,1,"<?xml version=""1.0""?>\n<Clock xmlns:dt=""urn:schemas-microsoft-com:datatypes""><Description dt:dt=""string"">E-Prime Primary Realtime Clock</Description><StartTime><Timestamp dt:dt=""int"">0</Timestamp><DateUtc dt:dt=""string"">2021-07-28T08:58:16Z</DateUtc></StartTime><FrequencyChanges><FrequencyChange><Frequency dt:dt=""r8"">3312714</Frequency><Timestamp dt:dt=""r8"">30372319630</Timestamp><Current dt:dt=""r8"">0</Current><DateUtc dt:dt=""string"">2021-07-28T08:58:16Z</DateUtc></FrequencyChange></FrequencyChanges></Clock>\n",SVO-001321-1,59.893,1.0.0.150,1,black,black,black,black,black,black,black,black,black,308206892,2.0.10.182,07-28-2021,2021/7/28 8:58,16:58:16,2.0.10.92,5,,,,,,5,1,2,5,50,56,63,69,75,81,88,94,100,,ProcTrial,,cyan,black,black,black,black,black,black,black,black,144,ListSess,0,,-999999,116,72847,{SPACE},934,73781,0,,-999999,101,69374,1,3356,72730,,,5,1,100,94,88,81,75,69,63,56,50,
SVO,1321,1,"<?xml version=""1.0""?>\n<Clock xmlns:dt=""urn:schemas-microsoft-com:datatypes""><Description dt:dt=""string"">E-Prime Primary Realtime Clock</Description><StartTime><Timestamp dt:dt=""int"">0</Timestamp><DateUtc dt:dt=""string"">2021-07-28T08:58:16Z</DateUtc></StartTime><FrequencyChanges><FrequencyChange><Frequency dt:dt=""r8"">3312714</Frequency><Timestamp dt:dt=""r8"">30372319630</Timestamp><Current dt:dt=""r8"">0</Current><DateUtc dt:dt=""string"">2021-07-28T08:58:16Z</DateUtc></FrequencyChange></FrequencyChanges></Clock>\n",SVO-001321-1,59.893,1.0.0.150,1,black,black,black,black,black,black,black,black,black,308206892,2.0.10.182,07-28-2021,2021/7/28 8:58,16:58:16,2.0.10.92,6,,,,,,6,1,2,6,50,54,59,63,68,72,76,81,85,,ProcTrial,,black,black,black,black,black,black,black,black,cyan,-1632,ListSess,0,,-999999,111,79643,{SPACE},438,80081,0,,-999999,101,74400,9,5132,79532,,,6,1,100,98,96,94,93,91,89,87,85,
SVO,1321,1,"<?xml version=""1.0""?>\n<Clock xmlns:dt=""urn:schemas-microsoft-com:datatypes""><Description dt:dt=""string"">E-Prime Primary Realtime Clock</Description><StartTime><Timestamp dt:dt=""int"">0</Timestamp><DateUtc dt:dt=""string"">2021-07-28T08:58:16Z</DateUtc></StartTime><FrequencyChanges><FrequencyChange><Frequency dt:dt=""r8"">3312714</Frequency><Timestamp dt:dt=""r8"">30372319630</Timestamp><Current dt:dt=""r8"">0</Current><DateUtc dt:dt=""string"">2021-07-28T08:58:16Z</DateUtc></FrequencyChange></FrequencyChanges></Clock>\n",SVO-001321-1,59.893,1.0.0.150,1,black,black,black,black,black,black,black,black,black,308206892,2.0.10.182,07-28-2021,2021/7/28 8:58,16:58:16,2.0.10.92,7,,,,,,7,1,2,7,50,56,63,69,75,81,88,94,100,,ProcTrial,,cyan,black,black,black,black,black,black,black,black,-4436,ListSess,0,,-999999,128,88776,{SPACE},1144,89920,0,,-999999,117,80711,1,7936,88647,,,7,2,100,96,93,89,85,81,78,74,70,
SVO,1321,1,"<?xml version=""1.0""?>\n<Clock xmlns:dt=""urn:schemas-microsoft-com:datatypes""><Description dt:dt=""string"">E-Prime Primary Realtime Clock</Description><StartTime><Timestamp dt:dt=""int"">0</Timestamp><DateUtc dt:dt=""string"">2021-07-28T08:58:16Z</DateUtc></StartTime><FrequencyChanges><FrequencyChange><Frequency dt:dt=""r8"">3312714</Frequency><Timestamp dt:dt=""r8"">30372319630</Timestamp><Current dt:dt=""r8"">0</Current><DateUtc dt:dt=""string"">2021-07-28T08:58:16Z</DateUtc></FrequencyChange></FrequencyChanges></Clock>\n",SVO-001321-1,59.893,1.0.0.150,1,black,black,black,black,black,black,black,black,black,308206892,2.0.10.182,07-28-2021,2021/7/28 8:58,16:58:16,2.0.10.92,8,,,,,,8,1,2,8,100,99,98,96,95,94,93,91,90,,ProcTrial,,black,black,black,black,black,black,black,black,cyan,-3769,ListSess,0,,-999999,109,97925,{SPACE},654,98579,0,,-999999,102,90546,9,7269,97815,,,8,2,90,91,93,94,95,96,98,99,100,
SVO,1321,1,"<?xml version=""1.0""?>\n<Clock xmlns:dt=""urn:schemas-microsoft-com:datatypes""><Description dt:dt=""string"">E-Prime Primary Realtime Clock</Description><StartTime><Timestamp dt:dt=""int"">0</Timestamp><DateUtc dt:dt=""string"">2021-07-28T08:58:16Z</DateUtc></StartTime><FrequencyChanges><FrequencyChange><Frequency dt:dt=""r8"">3312714</Frequency><Timestamp dt:dt=""r8"">30372319630</Timestamp><Current dt:dt=""r8"">0</Current><DateUtc dt:dt=""string"">2021-07-28T08:58:16Z</DateUtc></FrequencyChange></FrequencyChanges></Clock>\n",SVO-001321-1,59.893,1.0.0.150,1,black,black,black,black,black,black,black,black,black,308206892,2.0.10.182,07-28-2021,2021/7/28 8:58,16:58:16,2.0.10.92,9,,,,,,9,1,2,9,70,74,78,81,85,89,93,96,100,,ProcTrial,,cyan,black,black,black,black,black,black,black,black,-2654,ListSess,0,,-999999,90,105422,{SPACE},877,106299,0,,-999999,85,99178,1,6154,105332,,,9,2,100,94,88,81,75,69,63,56,50,
SVO,1321,1,"<?xml version=""1.0""?>\n<Clock xmlns:dt=""urn:schemas-microsoft-com:datatypes""><Description dt:dt=""string"">E-Prime Primary Realtime Clock</Description><StartTime><Timestamp dt:dt=""int"">0</Timestamp><DateUtc dt:dt=""string"">2021-07-28T08:58:16Z</DateUtc></StartTime><FrequencyChanges><FrequencyChange><Frequency dt:dt=""r8"">3312714</Frequency><Timestamp dt:dt=""r8"">30372319630</Timestamp><Current dt:dt=""r8"">0</Current><DateUtc dt:dt=""string"">2021-07-28T08:58:16Z</DateUtc></FrequencyChange></FrequencyChanges></Clock>\n",SVO-001321-1,59.893,1.0.0.150,1,black,black,black,black,black,black,black,black,black,308206892,2.0.10.182,07-28-2021,2021/7/28 8:58,16:58:16,2.0.10.92,10,,,,,,10,1,2,10,70,74,78,81,85,89,93,96,100,,ProcTrial,,cyan,black,black,black,black,black,black,black,black,-1362,ListSess,0,,-999999,114,111884,{SPACE},865,112749,0,,-999999,84,106908,1,4862,111770,,,10,2,100,99,98,96,95,94,93,91,90,
SVO,1321,1,"<?xml version=""1.0""?>\n<Clock xmlns:dt=""urn:schemas-microsoft-com:datatypes""><Description dt:dt=""string"">E-Prime Primary Realtime Clock</Description><StartTime><Timestamp dt:dt=""int"">0</Timestamp><DateUtc dt:dt=""string"">2021-07-28T08:58:16Z</DateUtc></StartTime><FrequencyChanges><FrequencyChange><Frequency dt:dt=""r8"">3312714</Frequency><Timestamp dt:dt=""r8"">30372319630</Timestamp><Current dt:dt=""r8"">0</Current><DateUtc dt:dt=""string"">2021-07-28T08:58:16Z</DateUtc></FrequencyChange></FrequencyChanges></Clock>\n",SVO-001321-1,59.893,1.0.0.150,1,black,black,black,black,black,black,black,black,black,308206892,2.0.10.182,07-28-2021,2021/7/28 8:58,16:58:16,2.0.10.92,11,,,,,,11,1,2,11,100,96,93,89,85,81,78,74,70,,ProcTrial,,black,black,black,black,black,black,black,black,cyan,-1003,ListSess,0,,-999999,122,117995,{SPACE},442,118437,0,,-999999,101,113370,9,4503,117873,,,11,2,70,74,78,81,85,89,93,96,100,
SVO,1321,1,"<?xml version=""1.0""?>\n<Clock xmlns:dt=""urn:schemas-microsoft-com:datatypes""><Description dt:dt=""string"">E-Prime Primary Realtime Clock</Description><StartTime><Timestamp dt:dt=""int"">0</Timestamp><DateUtc dt:dt=""string"">2021-07-28T08:58:16Z</DateUtc></StartTime><FrequencyChanges><FrequencyChange><Frequency dt:dt=""r8"">3312714</Frequency><Timestamp dt:dt=""r8"">30372319630</Timestamp><Current dt:dt=""r8"">0</Current><DateUtc dt:dt=""string"">2021-07-28T08:58:16Z</DateUtc></FrequencyChange></FrequencyChanges></Clock>\n",SVO-001321-1,59.893,1.0.0.150,1,black,black,black,black,black,black,black,black,black,308206892,2.0.10.182,07-28-2021,2021/7/28 8:58,16:58:16,2.0.10.92,12,,,,,,12,1,2,12,100,99,98,96,95,94,93,91,90,,ProcTrial,,black,black,black,black,black,black,black,black,cyan,-814,ListSess,0,,-999999,109,123471,{SPACE},474,123945,0,,-999999,85,119047,9,4314,123361,,,12,2,50,56,63,69,75,81,88,94,100,
SVO,1321,1,"<?xml version=""1.0""?>\n<Clock xmlns:dt=""urn:schemas-microsoft-com:datatypes""><Description dt:dt=""string"">E-Prime Primary Realtime Clock</Description><StartTime><Timestamp dt:dt=""int"">0</Timestamp><DateUtc dt:dt=""string"">2021-07-28T08:58:16Z</DateUtc></StartTime><FrequencyChanges><FrequencyChange><Frequency dt:dt=""r8"">3312714</Frequency><Timestamp dt:dt=""r8"">30372319630</Timestamp><Current dt:dt=""r8"">0</Current><DateUtc dt:dt=""string"">2021-07-28T08:58:16Z</DateUtc></FrequencyChange></FrequencyChanges></Clock>\n",SVO-001321-1,59.893,1.0.0.150,1,black,black,black,black,black,black,black,black,black,308206892,2.0.10.182,07-28-2021,2021/7/28 8:58,16:58:16,2.0.10.92,13,,,,,,13,1,2,13,100,94,88,81,75,69,63,56,50,,ProcTrial,,black,black,black,black,black,black,black,black,cyan,49,ListSess,0,,-999999,122,128130,{SPACE},1438,129568,0,,-999999,102,124557,9,3451,128008,,,13,2,50,56,63,69,75,81,88,94,100,
SVO,1321,1,"<?xml version=""1.0""?>\n<Clock xmlns:dt=""urn:schemas-microsoft-com:datatypes""><Description dt:dt=""string"">E-Prime Primary Realtime Clock</Description><StartTime><Timestamp dt:dt=""int"">0</Timestamp><DateUtc dt:dt=""string"">2021-07-28T08:58:16Z</DateUtc></StartTime><FrequencyChanges><FrequencyChange><Frequency dt:dt=""r8"">3312714</Frequency><Timestamp dt:dt=""r8"">30372319630</Timestamp><Current dt:dt=""r8"">0</Current><DateUtc dt:dt=""string"">2021-07-28T08:58:16Z</DateUtc></FrequencyChange></FrequencyChanges></Clock>\n",SVO-001321-1,59.893,1.0.0.150,1,black,black,black,black,black,black,black,black,black,308206892,2.0.10.182,07-28-2021,2021/7/28 8:58,16:58:16,2.0.10.92,14,,,,,,14,1,2,14,90,91,93,94,95,96,98,99,100,,ProcTrial,,cyan,black,black,black,black,black,black,black,black,172,ListSess,0,,-999999,95,133606,{SPACE},916,134522,0,,-999999,101,130183,1,3328,133511,,,14,2,100,96,93,89,85,81,78,74,70,
SVO,1321,1,"<?xml version=""1.0""?>\n<Clock xmlns:dt=""urn:schemas-microsoft-com:datatypes""><Description dt:dt=""string"">E-Prime Primary Realtime Clock</Description><StartTime><Timestamp dt:dt=""int"">0</Timestamp><DateUtc dt:dt=""string"">2021-07-28T08:58:16Z</DateUtc></StartTime><FrequencyChanges><FrequencyChange><Frequency dt:dt=""r8"">3312714</Frequency><Timestamp dt:dt=""r8"">30372319630</Timestamp><Current dt:dt=""r8"">0</Current><DateUtc dt:dt=""string"">2021-07-28T08:58:16Z</DateUtc></FrequencyChange></FrequencyChanges></Clock>\n",SVO-001321-1,59.893,1.0.0.150,1,black,black,black,black,black,black,black,black,black,308206892,2.0.10.182,07-28-2021,2021/7/28 8:58,16:58:16,2.0.10.92,15,1,0.5,0,0.5,999,15,1,2,15,100,94,88,81,75,69,63,56,50,75.83334,ProcTrial,,black,black,black,black,black,black,black,black,cyan,396,ListSess,0,,-999999,119,138348,{SPACE},552,138900,0,,-999999,84,135125,9,3104,138229,0.7560977,2,15,2,90,91,93,94,95,96,98,99,100,84.16666
SVO,1331,1,"<?xml version=""1.0""?>\n<Clock xmlns:dt=""urn:schemas-microsoft-com:datatypes""><Description dt:dt=""string"">E-Prime Primary Realtime Clock</Description><StartTime><Timestamp dt:dt=""int"">0</Timestamp><DateUtc dt:dt=""string"">2021-07-28T07:25:48Z</DateUtc></StartTime><FrequencyChanges><FrequencyChange><Frequency dt:dt=""r8"">3312714</Frequency><Timestamp dt:dt=""r8"">11994857566</Timestamp><Current dt:dt=""r8"">0</Current><DateUtc dt:dt=""string"">2021-07-28T07:25:48Z</DateUtc></FrequencyChange></FrequencyChanges></Clock>\n",SVO-001331-1,59.892,1.0.0.149,1,black,black,black,black,black,black,black,black,black,-889375368,2.0.10.182,07-28-2021,2021/7/28 7:25,15:25:48,2.0.10.92,1,,,,,,1,1,2,1,85,76,68,59,50,41,33,24,15,,ProcTrial,,cyan,black,black,black,black,black,black,black,black,-17683,ListSess,0,,-999999,122,43943,{SPACE},2746,46689,0,,-999999,135,22638,1,21183,43821,,,1,1,85,85,85,85,85,85,85,85,85,
SVO,1331,1,"<?xml version=""1.0""?>\n<Clock xmlns:dt=""urn:schemas-microsoft-com:datatypes""><Description dt:dt=""string"">E-Prime Primary Realtime Clock</Description><StartTime><Timestamp dt:dt=""int"">0</Timestamp><DateUtc dt:dt=""string"">2021-07-28T07:25:48Z</DateUtc></StartTime><FrequencyChanges><FrequencyChange><Frequency dt:dt=""r8"">3312714</Frequency><Timestamp dt:dt=""r8"">11994857566</Timestamp><Current dt:dt=""r8"">0</Current><DateUtc dt:dt=""string"">2021-07-28T07:25:48Z</DateUtc></FrequencyChange></FrequencyChanges></Clock>\n",SVO-001331-1,59.892,1.0.0.149,1,black,black,black,black,black,black,black,black,black,-889375368,2.0.10.182,07-28-2021,2021/7/28 7:25,15:25:48,2.0.10.92,2,,,,,,2,1,2,2,15,19,24,28,33,37,41,46,50,,ProcTrial,,black,black,black,black,black,black,black,black,cyan,-9014,ListSess,0,,-999999,107,59938,{SPACE},419,60357,0,,-999999,101,47316,9,12514,59830,,,2,1,85,87,89,91,93,94,96,98,100,
SVO,1331,1,"<?xml version=""1.0""?>\n<Clock xmlns:dt=""urn:schemas-microsoft-com:datatypes""><Description dt:dt=""string"">E-Prime Primary Realtime Clock</Description><StartTime><Timestamp dt:dt=""int"">0</Timestamp><DateUtc dt:dt=""string"">2021-07-28T07:25:48Z</DateUtc></StartTime><FrequencyChanges><FrequencyChange><Frequency dt:dt=""r8"">3312714</Frequency><Timestamp dt:dt=""r8"">11994857566</Timestamp><Current dt:dt=""r8"">0</Current><DateUtc dt:dt=""string"">2021-07-28T07:25:48Z</DateUtc></FrequencyChange></FrequencyChanges></Clock>\n",SVO-001331-1,59.892,1.0.0.149,1,black,black,black,black,black,black,black,black,black,-889375368,2.0.10.182,07-28-2021,2021/7/28 7:25,15:25:48,2.0.10.92,3,,,,,,3,1,2,3,100,98,96,94,93,91,89,87,85,,ProcTrial,,black,black,black,black,black,black,black,black,cyan,-12709,ListSess,0,,-999999,120,77286,{SPACE},272,77558,0,,-999999,85,60957,9,16209,77166,,,3,1,50,54,59,63,68,72,76,81,85,
SVO,1331,1,"<?xml version=""1.0""?>\n<Clock xmlns:dt=""urn:schemas-microsoft-com:datatypes""><Description dt:dt=""string"">E-Prime Primary Realtime Clock</Description><StartTime><Timestamp dt:dt=""int"">0</Timestamp><DateUtc dt:dt=""string"">2021-07-28T07:25:48Z</DateUtc></StartTime><FrequencyChanges><FrequencyChange><Frequency dt:dt=""r8"">3312714</Frequency><Timestamp dt:dt=""r8"">11994857566</Timestamp><Current dt:dt=""r8"">0</Current><DateUtc dt:dt=""string"">2021-07-28T07:25:48Z</DateUtc></FrequencyChange></FrequencyChanges></Clock>\n",SVO-001331-1,59.892,1.0.0.149,1,black,black,black,black,black,black,black,black,black,-889375368,2.0.10.182,07-28-2021,2021/7/28 7:25,15:25:48,2.0.10.92,4,,,,,,4,1,2,4,100,89,79,68,58,47,36,26,15,,ProcTrial,,black,black,black,cyan,black,black,black,black,black,-5212,ListSess,0,,-999999,121,87004,{SPACE},209,87213,0,,-999999,101,78171,4,8712,86883,,,4,1,50,54,59,63,68,72,76,81,85,
SVO,1331,1,"<?xml version=""1.0""?>\n<Clock xmlns:dt=""urn:schemas-microsoft-com:datatypes""><Description dt:dt=""string"">E-Prime Primary Realtime Clock</Description><StartTime><Timestamp dt:dt=""int"">0</Timestamp><DateUtc dt:dt=""string"">2021-07-28T07:25:48Z</DateUtc></StartTime><FrequencyChanges><FrequencyChange><Frequency dt:dt=""r8"">3312714</Frequency><Timestamp dt:dt=""r8"">11994857566</Timestamp><Current dt:dt=""r8"">0</Current><DateUtc dt:dt=""string"">2021-07-28T07:25:48Z</DateUtc></FrequencyChange></FrequencyChanges></Clock>\n",SVO-001331-1,59.892,1.0.0.149,1,black,black,black,black,black,black,black,black,black,-889375368,2.0.10.182,07-28-2021,2021/7/28 7:25,15:25:48,2.0.10.92,5,,,,,,5,1,2,5,50,56,63,69,75,81,88,94,100,,ProcTrial,,cyan,black,black,black,black,black,black,black,black,-5169,ListSess,0,,-999999,114,96621,{SPACE},378,96999,0,,-999999,101,87838,1,8669,96507,,,5,1,100,94,88,81,75,69,63,56,50,
SVO,1331,1,"<?xml version=""1.0""?>\n<Clock xmlns:dt=""urn:schemas-microsoft-com:datatypes""><Description dt:dt=""string"">E-Prime Primary Realtime Clock</Description><StartTime><Timestamp dt:dt=""int"">0</Timestamp><DateUtc dt:dt=""string"">2021-07-28T07:25:48Z</DateUtc></StartTime><FrequencyChanges><FrequencyChange><Frequency dt:dt=""r8"">3312714</Frequency><Timestamp dt:dt=""r8"">11994857566</Timestamp><Current dt:dt=""r8"">0</Current><DateUtc dt:dt=""string"">2021-07-28T07:25:48Z</DateUtc></FrequencyChange></FrequencyChanges></Clock>\n",SVO-001331-1,59.892,1.0.0.149,1,black,black,black,black,black,black,black,black,black,-889375368,2.0.10.182,07-28-2021,2021/7/28 7:25,15:25:48,2.0.10.92,6,,,,,,6,1,2,6,50,54,59,63,68,72,76,81,85,,ProcTrial,,black,black,cyan,black,black,black,black,black,black,23,ListSess,0,,-999999,112,101212,{SPACE},309,101521,0,,-999999,101,97623,3,3477,101100,,,6,1,100,98,96,94,93,91,89,87,85,
SVO,1331,1,"<?xml version=""1.0""?>\n<Clock xmlns:dt=""urn:schemas-microsoft-com:datatypes""><Description dt:dt=""string"">E-Prime Primary Realtime Clock</Description><StartTime><Timestamp dt:dt=""int"">0</Timestamp><DateUtc dt:dt=""string"">2021-07-28T07:25:48Z</DateUtc></StartTime><FrequencyChanges><FrequencyChange><Frequency dt:dt=""r8"">3312714</Frequency><Timestamp dt:dt=""r8"">11994857566</Timestamp><Current dt:dt=""r8"">0</Current><DateUtc dt:dt=""string"">2021-07-28T07:25:48Z</DateUtc></FrequencyChange></FrequencyChanges></Clock>\n",SVO-001331-1,59.892,1.0.0.149,1,black,black,black,black,black,black,black,black,black,-889375368,2.0.10.182,07-28-2021,2021/7/28 7:25,15:25:48,2.0.10.92,7,,,,,,7,1,2,7,50,56,63,69,75,81,88,94,100,,ProcTrial,,black,black,black,black,cyan,black,black,black,black,1074,ListSess,0,,-999999,111,104669,{SPACE},321,104990,0,,-999999,85,102131,5,2426,104557,,,7,2,100,96,93,89,85,81,78,74,70,
SVO,1331,1,"<?xml version=""1.0""?>\n<Clock xmlns:dt=""urn:schemas-microsoft-com:datatypes""><Description dt:dt=""string"">E-Prime Primary Realtime Clock</Description><StartTime><Timestamp dt:dt=""int"">0</Timestamp><DateUtc dt:dt=""string"">2021-07-28T07:25:48Z</DateUtc></StartTime><FrequencyChanges><FrequencyChange><Frequency dt:dt=""r8"">3312714</Frequency><Timestamp dt:dt=""r8"">11994857566</Timestamp><Current dt:dt=""r8"">0</Current><DateUtc dt:dt=""string"">2021-07-28T07:25:48Z</DateUtc></FrequencyChange></FrequencyChanges></Clock>\n",SVO-001331-1,59.892,1.0.0.149,1,black,black,black,black,black,black,black,black,black,-889375368,2.0.10.182,07-28-2021,2021/7/28 7:25,15:25:48,2.0.10.92,8,,,,,,8,1,2,8,100,99,98,96,95,94,93,91,90,,ProcTrial,,black,black,black,black,cyan,black,black,black,black,169,ListSess,0,,-999999,124,109060,{SPACE},243,109303,0,,-999999,101,105604,5,3331,108935,,,8,2,90,91,93,94,95,96,98,99,100,
SVO,1331,1,"<?xml version=""1.0""?>\n<Clock xmlns:dt=""urn:schemas-microsoft-com:datatypes""><Description dt:dt=""string"">E-Prime Primary Realtime Clock</Description><StartTime><Timestamp dt:dt=""int"">0</Timestamp><DateUtc dt:dt=""string"">2021-07-28T07:25:48Z</DateUtc></StartTime><FrequencyChanges><FrequencyChange><Frequency dt:dt=""r8"">3312714</Frequency><Timestamp dt:dt=""r8"">11994857566</Timestamp><Current dt:dt=""r8"">0</Current><DateUtc dt:dt=""string"">2021-07-28T07:25:48Z</DateUtc></FrequencyChange></FrequencyChanges></Clock>\n",SVO-001331-1,59.892,1.0.0.149,1,black,black,black,black,black,black,black,black,black,-889375368,2.0.10.182,07-28-2021,2021/7/28 7:25,15:25:48,2.0.10.92,9,,,,,,9,1,2,9,70,74,78,81,85,89,93,96,100,,ProcTrial,,black,black,black,cyan,black,black,black,black,black,332,ListSess,0,,-999999,122,113201,{SPACE},271,113472,0,,-999999,84,109911,4,3168,113079,,,9,2,100,94,88,81,75,69,63,56,50,
SVO,1331,1,"<?xml version=""1.0""?>\n<Clock xmlns:dt=""urn:schemas-microsoft-com:datatypes""><Description dt:dt=""string"">E-Prime Primary Realtime Clock</Description><StartTime><Timestamp dt:dt=""int"">0</Timestamp><DateUtc dt:dt=""string"">2021-07-28T07:25:48Z</DateUtc></StartTime><FrequencyChanges><FrequencyChange><Frequency dt:dt=""r8"">3312714</Frequency><Timestamp dt:dt=""r8"">11994857566</Timestamp><Current dt:dt=""r8"">0</Current><DateUtc dt:dt=""string"">2021-07-28T07:25:48Z</DateUtc></FrequencyChange></FrequencyChanges></Clock>\n",SVO-001331-1,59.892,1.0.0.149,1,black,black,black,black,black,black,black,black,black,-889375368,2.0.10.182,07-28-2021,2021/7/28 7:25,15:25:48,2.0.10.92,10,,,,,,10,1,2,10,70,74,78,81,85,89,93,96,100,,ProcTrial,,black,black,black,black,black,black,cyan,black,black,-455,ListSess,0,,-999999,118,118143,{SPACE},218,118361,0,,-999999,85,114069,7,3955,118024,,,10,2,100,99,98,96,95,94,93,91,90,
SVO,1331,1,"<?xml version=""1.0""?>\n<Clock xmlns:dt=""urn:schemas-microsoft-com:datatypes""><Description dt:dt=""string"">E-Prime Primary Realtime Clock</Description><StartTime><Timestamp dt:dt=""int"">0</Timestamp><DateUtc dt:dt=""string"">2021-07-28T07:25:48Z</DateUtc></StartTime><FrequencyChanges><FrequencyChange><Frequency dt:dt=""r8"">3312714</Frequency><Timestamp dt:dt=""r8"">11994857566</Timestamp><Current dt:dt=""r8"">0</Current><DateUtc dt:dt=""string"">2021-07-28T07:25:48Z</DateUtc></FrequencyChange></FrequencyChanges></Clock>\n",SVO-001331-1,59.892,1.0.0.149,1,black,black,black,black,black,black,black,black,black,-889375368,2.0.10.182,07-28-2021,2021/7/28 7:25,15:25:48,2.0.10.92,11,,,,,,11,1,2,11,100,96,93,89,85,81,78,74,70,,ProcTrial,,black,black,black,black,cyan,black,black,black,black,605,ListSess,0,,-999999,110,121966,{SPACE},233,122199,0,,-999999,84,118961,5,2895,121856,,,11,2,70,74,78,81,85,89,93,96,100,
SVO,1331,1,"<?xml version=""1.0""?>\n<Clock xmlns:dt=""urn:schemas-microsoft-com:datatypes""><Description dt:dt=""string"">E-Prime Primary Realtime Clock</Description><StartTime><Timestamp dt:dt=""int"">0</Timestamp><DateUtc dt:dt=""string"">2021-07-28T07:25:48Z</DateUtc></StartTime><FrequencyChanges><FrequencyChange><Frequency dt:dt=""r8"">3312714</Frequency><Timestamp dt:dt=""r8"">11994857566</Timestamp><Current dt:dt=""r8"">0</Current><DateUtc dt:dt=""string"">2021-07-28T07:25:48Z</DateUtc></FrequencyChange></FrequencyChanges></Clock>\n",SVO-001331-1,59.892,1.0.0.149,1,black,black,black,black,black,black,black,black,black,-889375368,2.0.10.182,07-28-2021,2021/7/28 7:25,15:25:48,2.0.10.92,12,,,,,,12,1,2,12,100,99,98,96,95,94,93,91,90,,ProcTrial,,black,black,black,black,black,black,black,cyan,black,-12617,ListSess,0,,-999999,112,139047,{SPACE},193,139240,0,,-999999,101,122818,8,16117,138935,,,12,2,50,56,63,69,75,81,88,94,100,
SVO,1331,1,"<?xml version=""1.0""?>\n<Clock xmlns:dt=""urn:schemas-microsoft-com:datatypes""><Description dt:dt=""string"">E-Prime Primary Realtime Clock</Description><StartTime><Timestamp dt:dt=""int"">0</Timestamp><DateUtc dt:dt=""string"">2021-07-28T07:25:48Z</DateUtc></StartTime><FrequencyChanges><FrequencyChange><Frequency dt:dt=""r8"">3312714</Frequency><Timestamp dt:dt=""r8"">11994857566</Timestamp><Current dt:dt=""r8"">0</Current><DateUtc dt:dt=""string"">2021-07-28T07:25:48Z</DateUtc></FrequencyChange></FrequencyChanges></Clock>\n",SVO-001331-1,59.892,1.0.0.149,1,black,black,black,black,black,black,black,black,black,-889375368,2.0.10.182,07-28-2021,2021/7/28 7:25,15:25:48,2.0.10.92,13,,,,,,13,1,2,13,100,94,88,81,75,69,63,56,50,,ProcTrial,,black,black,black,black,cyan,black,black,black,black,1282,ListSess,0,,-999999,120,142203,{SPACE},226,142429,0,,-999999,101,139865,5,2218,142083,,,13,2,50,56,63,69,75,81,88,94,100,
SVO,1331,1,"<?xml version=""1.0""?>\n<Clock xmlns:dt=""urn:schemas-microsoft-com:datatypes""><Description dt:dt=""string"">E-Prime Primary Realtime Clock</Description><StartTime><Timestamp dt:dt=""int"">0</Timestamp><DateUtc dt:dt=""string"">2021-07-28T07:25:48Z</DateUtc></StartTime><FrequencyChanges><FrequencyChange><Frequency dt:dt=""r8"">3312714</Frequency><Timestamp dt:dt=""r8"">11994857566</Timestamp><Current dt:dt=""r8"">0</Current><DateUtc dt:dt=""string"">2021-07-28T07:25:48Z</DateUtc></FrequencyChange></FrequencyChanges></Clock>\n",SVO-001331-1,59.892,1.0.0.149,1,black,black,black,black,black,black,black,black,black,-889375368,2.0.10.182,07-28-2021,2021/7/28 7:25,15:25:48,2.0.10.92,14,,,,,,14,1,2,14,90,91,93,94,95,96,98,99,100,,ProcTrial,,black,black,cyan,black,black,black,black,black,black,-2608,ListSess,0,,-999999,120,149265,{SPACE},229,149494,0,,-999999,84,143037,3,6108,149145,,,14,2,100,96,93,89,85,81,78,74,70,
SVO,1331,1,"<?xml version=""1.0""?>\n<Clock xmlns:dt=""urn:schemas-microsoft-com:datatypes""><Description dt:dt=""string"">E-Prime Primary Realtime Clock</Description><StartTime><Timestamp dt:dt=""int"">0</Timestamp><DateUtc dt:dt=""string"">2021-07-28T07:25:48Z</DateUtc></StartTime><FrequencyChanges><FrequencyChange><Frequency dt:dt=""r8"">3312714</Frequency><Timestamp dt:dt=""r8"">11994857566</Timestamp><Current dt:dt=""r8"">0</Current><DateUtc dt:dt=""string"">2021-07-28T07:25:48Z</DateUtc></FrequencyChange></FrequencyChanges></Clock>\n",SVO-001331-1,59.892,1.0.0.149,1,black,black,black,black,black,black,black,black,black,-889375368,2.0.10.182,07-28-2021,2021/7/28 7:25,15:25:48,2.0.10.92,15,0.5277778,2.78E-02,0.4722222,0.2916667,8.70E-02,15,1,2,15,100,94,88,81,75,69,63,56,50,66.16666,ProcTrial,,black,black,cyan,black,black,black,black,black,black,-15787,ListSess,0,,-999999,115,169502,{SPACE},368,169870,0,,-999999,84,150100,3,19287,169387,0.4235807,2,15,2,90,91,93,94,95,96,98,99,100,88.16666
SVO,1341,1,"<?xml version=""1.0""?>\n<Clock xmlns:dt=""urn:schemas-microsoft-com:datatypes""><Description dt:dt=""string"">E-Prime Primary Realtime Clock</Description><StartTime><Timestamp dt:dt=""int"">0</Timestamp><DateUtc dt:dt=""string"">2021-08-02T09:01:15Z</DateUtc></StartTime><FrequencyChanges><FrequencyChange><Frequency dt:dt=""r8"">3312724</Frequency><Timestamp dt:dt=""r8"">30365887784</Timestamp><Current dt:dt=""r8"">0</Current><DateUtc dt:dt=""string"">2021-08-02T09:01:15Z</DateUtc></FrequencyChange></FrequencyChanges></Clock>\n",SVO-001341-1,59.893,1.0.0.156,1,black,black,black,black,black,black,black,black,black,301752515,2.0.10.182,08-02-2021,2021/8/2 9:01,17:01:15,2.0.10.92,1,,,,,,1,1,2,1,85,76,68,59,50,41,33,24,15,,ProcTrial,,cyan,black,black,black,black,black,black,black,black,-32136,ListSess,0,,-999999,111,53871,{SPACE},1062,54933,0,,-999999,134,18124,1,35636,53760,,,1,1,85,85,85,85,85,85,85,85,85,
SVO,1341,1,"<?xml version=""1.0""?>\n<Clock xmlns:dt=""urn:schemas-microsoft-com:datatypes""><Description dt:dt=""string"">E-Prime Primary Realtime Clock</Description><StartTime><Timestamp dt:dt=""int"">0</Timestamp><DateUtc dt:dt=""string"">2021-08-02T09:01:15Z</DateUtc></StartTime><FrequencyChanges><FrequencyChange><Frequency dt:dt=""r8"">3312724</Frequency><Timestamp dt:dt=""r8"">30365887784</Timestamp><Current dt:dt=""r8"">0</Current><DateUtc dt:dt=""string"">2021-08-02T09:01:15Z</DateUtc></FrequencyChange></FrequencyChanges></Clock>\n",SVO-001341-1,59.893,1.0.0.156,1,black,black,black,black,black,black,black,black,black,301752515,2.0.10.182,08-02-2021,2021/8/2 9:01,17:01:15,2.0.10.92,2,,,,,,2,1,2,2,15,19,24,28,33,37,41,46,50,,ProcTrial,,cyan,black,black,black,black,black,black,black,black,-5605,ListSess,0,,-999999,110,64774,{SPACE},7534,72308,0,,-999999,101,55558,1,9105,64663,,,2,1,85,87,89,91,93,94,96,98,100,
SVO,1341,1,"<?xml version=""1.0""?>\n<Clock xmlns:dt=""urn:schemas-microsoft-com:datatypes""><Description dt:dt=""string"">E-Prime Primary Realtime Clock</Description><StartTime><Timestamp dt:dt=""int"">0</Timestamp><DateUtc dt:dt=""string"">2021-08-02T09:01:15Z</DateUtc></StartTime><FrequencyChanges><FrequencyChange><Frequency dt:dt=""r8"">3312724</Frequency><Timestamp dt:dt=""r8"">30365887784</Timestamp><Current dt:dt=""r8"">0</Current><DateUtc dt:dt=""string"">2021-08-02T09:01:15Z</DateUtc></FrequencyChange></FrequencyChanges></Clock>\n",SVO-001341-1,59.893,1.0.0.156,1,black,black,black,black,black,black,black,black,black,301752515,2.0.10.182,08-02-2021,2021/8/2 9:01,17:01:15,2.0.10.92,3,,,,,,3,1,2,3,100,98,96,94,93,91,89,87,85,,ProcTrial,,black,black,black,black,black,black,black,black,cyan,-1597,ListSess,0,,-999999,96,78115,{SPACE},836,78951,0,,-999999,101,72922,9,5097,78019,,,3,1,50,54,59,63,68,72,76,81,85,
SVO,1341,1,"<?xml version=""1.0""?>\n<Clock xmlns:dt=""urn:schemas-microsoft-com:datatypes""><Description dt:dt=""string"">E-Prime Primary Realtime Clock</Description><StartTime><Timestamp dt:dt=""int"">0</Timestamp><DateUtc dt:dt=""string"">2021-08-02T09:01:15Z</DateUtc></StartTime><FrequencyChanges><FrequencyChange><Frequency dt:dt=""r8"">3312724</Frequency><Timestamp dt:dt=""r8"">30365887784</Timestamp><Current dt:dt=""r8"">0</Current><DateUtc dt:dt=""string"">2021-08-02T09:01:15Z</DateUtc></FrequencyChange></FrequencyChanges></Clock>\n",SVO-001341-1,59.893,1.0.0.156,1,black,black,black,black,black,black,black,black,black,301752515,2.0.10.182,08-02-2021,2021/8/2 9:01,17:01:15,2.0.10.92,4,,,,,,4,1,2,4,100,89,79,68,58,47,36,26,15,,ProcTrial,,cyan,black,black,black,black,black,black,black,black,-2341,ListSess,0,,-999999,119,85511,{SPACE},1006,86517,0,,-999999,85,79551,1,5841,85392,,,4,1,50,54,59,63,68,72,76,81,85,
SVO,1341,1,"<?xml version=""1.0""?>\n<Clock xmlns:dt=""urn:schemas-microsoft-com:datatypes""><Description dt:dt=""string"">E-Prime Primary Realtime Clock</Description><StartTime><Timestamp dt:dt=""int"">0</Timestamp><DateUtc dt:dt=""string"">2021-08-02T09:01:15Z</DateUtc></StartTime><FrequencyChanges><FrequencyChange><Frequency dt:dt=""r8"">3312724</Frequency><Timestamp dt:dt=""r8"">30365887784</Timestamp><Current dt:dt=""r8"">0</Current><DateUtc dt:dt=""string"">2021-08-02T09:01:15Z</DateUtc></FrequencyChange></FrequencyChanges></Clock>\n",SVO-001341-1,59.893,1.0.0.156,1,black,black,black,black,black,black,black,black,black,301752515,2.0.10.182,08-02-2021,2021/8/2 9:01,17:01:15,2.0.10.92,5,,,,,,5,1,2,5,50,56,63,69,75,81,88,94,100,,ProcTrial,,cyan,black,black,black,black,black,black,black,black,-1041,ListSess,0,,-999999,117,91789,{SPACE},1146,92935,0,,-999999,101,87131,1,4541,91672,,,5,1,100,94,88,81,75,69,63,56,50,
SVO,1341,1,"<?xml version=""1.0""?>\n<Clock xmlns:dt=""urn:schemas-microsoft-com:datatypes""><Description dt:dt=""string"">E-Prime Primary Realtime Clock</Description><StartTime><Timestamp dt:dt=""int"">0</Timestamp><DateUtc dt:dt=""string"">2021-08-02T09:01:15Z</DateUtc></StartTime><FrequencyChanges><FrequencyChange><Frequency dt:dt=""r8"">3312724</Frequency><Timestamp dt:dt=""r8"">30365887784</Timestamp><Current dt:dt=""r8"">0</Current><DateUtc dt:dt=""string"">2021-08-02T09:01:15Z</DateUtc></FrequencyChange></FrequencyChanges></Clock>\n",SVO-001341-1,59.893,1.0.0.156,1,black,black,black,black,black,black,black,black,black,301752515,2.0.10.182,08-02-2021,2021/8/2 9:01,17:01:15,2.0.10.92,6,,,,,,6,1,2,6,50,54,59,63,68,72,76,81,85,,ProcTrial,,black,black,black,black,cyan,black,black,black,black,-1758,ListSess,0,,-999999,118,98935,{SPACE},908,99843,0,,-999999,101,93559,5,5258,98817,,,6,1,100,98,96,94,93,91,89,87,85,
SVO,1341,1,"<?xml version=""1.0""?>\n<Clock xmlns:dt=""urn:schemas-microsoft-com:datatypes""><Description dt:dt=""string"">E-Prime Primary Realtime Clock</Description><StartTime><Timestamp dt:dt=""int"">0</Timestamp><DateUtc dt:dt=""string"">2021-08-02T09:01:15Z</DateUtc></StartTime><FrequencyChanges><FrequencyChange><Frequency dt:dt=""r8"">3312724</Frequency><Timestamp dt:dt=""r8"">30365887784</Timestamp><Current dt:dt=""r8"">0</Current><DateUtc dt:dt=""string"">2021-08-02T09:01:15Z</DateUtc></FrequencyChange></FrequencyChanges></Clock>\n",SVO-001341-1,59.893,1.0.0.156,1,black,black,black,black,black,black,black,black,black,301752515,2.0.10.182,08-02-2021,2021/8/2 9:01,17:01:15,2.0.10.92,7,,,,,,7,1,2,7,50,56,63,69,75,81,88,94,100,,ProcTrial,,black,black,black,black,black,cyan,black,black,black,-1581,ListSess,0,,-999999,111,105647,{SPACE},1240,106887,0,,-999999,101,100455,6,5081,105536,,,7,2,100,96,93,89,85,81,78,74,70,
SVO,1341,1,"<?xml version=""1.0""?>\n<Clock xmlns:dt=""urn:schemas-microsoft-com:datatypes""><Description dt:dt=""string"">E-Prime Primary Realtime Clock</Description><StartTime><Timestamp dt:dt=""int"">0</Timestamp><DateUtc dt:dt=""string"">2021-08-02T09:01:15Z</DateUtc></StartTime><FrequencyChanges><FrequencyChange><Frequency dt:dt=""r8"">3312724</Frequency><Timestamp dt:dt=""r8"">30365887784</Timestamp><Current dt:dt=""r8"">0</Current><DateUtc dt:dt=""string"">2021-08-02T09:01:15Z</DateUtc></FrequencyChange></FrequencyChanges></Clock>\n",SVO-001341-1,59.893,1.0.0.156,1,black,black,black,black,black,black,black,black,black,301752515,2.0.10.182,08-02-2021,2021/8/2 9:01,17:01:15,2.0.10.92,8,,,,,,8,1,2,8,100,99,98,96,95,94,93,91,90,,ProcTrial,,black,black,black,black,cyan,black,black,black,black,-3720,ListSess,0,,-999999,108,114830,{SPACE},876,115706,0,,-999999,101,107501,5,7220,114721,,,8,2,90,91,93,94,95,96,98,99,100,
SVO,1341,1,"<?xml version=""1.0""?>\n<Clock xmlns:dt=""urn:schemas-microsoft-com:datatypes""><Description dt:dt=""string"">E-Prime Primary Realtime Clock</Description><StartTime><Timestamp dt:dt=""int"">0</Timestamp><DateUtc dt:dt=""string"">2021-08-02T09:01:15Z</DateUtc></StartTime><FrequencyChanges><FrequencyChange><Frequency dt:dt=""r8"">3312724</Frequency><Timestamp dt:dt=""r8"">30365887784</Timestamp><Current dt:dt=""r8"">0</Current><DateUtc dt:dt=""string"">2021-08-02T09:01:15Z</DateUtc></FrequencyChange></FrequencyChanges></Clock>\n",SVO-001341-1,59.893,1.0.0.156,1,black,black,black,black,black,black,black,black,black,301752515,2.0.10.182,08-02-2021,2021/8/2 9:01,17:01:15,2.0.10.92,9,,,,,,9,1,2,9,70,74,78,81,85,89,93,96,100,,ProcTrial,,black,black,black,cyan,black,black,black,black,black,-464,ListSess,0,,-999999,109,120390,{SPACE},636,121026,0,,-999999,100,116316,4,3964,120280,,,9,2,100,94,88,81,75,69,63,56,50,
SVO,1341,1,"<?xml version=""1.0""?>\n<Clock xmlns:dt=""urn:schemas-microsoft-com:datatypes""><Description dt:dt=""string"">E-Prime Primary Realtime Clock</Description><StartTime><Timestamp dt:dt=""int"">0</Timestamp><DateUtc dt:dt=""string"">2021-08-02T09:01:15Z</DateUtc></StartTime><FrequencyChanges><FrequencyChange><Frequency dt:dt=""r8"">3312724</Frequency><Timestamp dt:dt=""r8"">30365887784</Timestamp><Current dt:dt=""r8"">0</Current><DateUtc dt:dt=""string"">2021-08-02T09:01:15Z</DateUtc></FrequencyChange></FrequencyChanges></Clock>\n",SVO-001341-1,59.893,1.0.0.156,1,black,black,black,black,black,black,black,black,black,301752515,2.0.10.182,08-02-2021,2021/8/2 9:01,17:01:15,2.0.10.92,10,,,,,,10,1,2,10,70,74,78,81,85,89,93,96,100,,ProcTrial,,black,black,black,black,black,black,cyan,black,black,-2880,ListSess,0,,-999999,115,128121,{SPACE},1239,129360,0,,-999999,84,121626,7,6380,128006,,,10,2,100,99,98,96,95,94,93,91,90,
SVO,1341,1,"<?xml version=""1.0""?>\n<Clock xmlns:dt=""urn:schemas-microsoft-com:datatypes""><Description dt:dt=""string"">E-Prime Primary Realtime Clock</Description><StartTime><Timestamp dt:dt=""int"">0</Timestamp><DateUtc dt:dt=""string"">2021-08-02T09:01:15Z</DateUtc></StartTime><FrequencyChanges><FrequencyChange><Frequency dt:dt=""r8"">3312724</Frequency><Timestamp dt:dt=""r8"">30365887784</Timestamp><Current dt:dt=""r8"">0</Current><DateUtc dt:dt=""string"">2021-08-02T09:01:15Z</DateUtc></FrequencyChange></FrequencyChanges></Clock>\n",SVO-001341-1,59.893,1.0.0.156,1,black,black,black,black,black,black,black,black,black,301752515,2.0.10.182,08-02-2021,2021/8/2 9:01,17:01:15,2.0.10.92,11,,,,,,11,1,2,11,100,96,93,89,85,81,78,74,70,,ProcTrial,,black,black,black,black,cyan,black,black,black,black,-4492,ListSess,0,,-999999,123,138089,{SPACE},709,138798,0,,-999999,101,129974,5,7992,137966,,,11,2,70,74,78,81,85,89,93,96,100,
SVO,1341,1,"<?xml version=""1.0""?>\n<Clock xmlns:dt=""urn:schemas-microsoft-com:datatypes""><Description dt:dt=""string"">E-Prime Primary Realtime Clock</Description><StartTime><Timestamp dt:dt=""int"">0</Timestamp><DateUtc dt:dt=""string"">2021-08-02T09:01:15Z</DateUtc></StartTime><FrequencyChanges><FrequencyChange><Frequency dt:dt=""r8"">3312724</Frequency><Timestamp dt:dt=""r8"">30365887784</Timestamp><Current dt:dt=""r8"">0</Current><DateUtc dt:dt=""string"">2021-08-02T09:01:15Z</DateUtc></FrequencyChange></FrequencyChanges></Clock>\n",SVO-001341-1,59.893,1.0.0.156,1,black,black,black,black,black,black,black,black,black,301752515,2.0.10.182,08-02-2021,2021/8/2 9:01,17:01:15,2.0.10.92,12,,,,,,12,1,2,12,100,99,98,96,95,94,93,91,90,,ProcTrial,,black,black,black,black,black,black,black,black,cyan,-6998,ListSess,0,,-999999,121,150027,{SPACE},905,150932,0,,-999999,101,139408,9,10498,149906,,,12,2,50,56,63,69,75,81,88,94,100,
SVO,1341,1,"<?xml version=""1.0""?>\n<Clock xmlns:dt=""urn:schemas-microsoft-com:datatypes""><Description dt:dt=""string"">E-Prime Primary Realtime Clock</Description><StartTime><Timestamp dt:dt=""int"">0</Timestamp><DateUtc dt:dt=""string"">2021-08-02T09:01:15Z</DateUtc></StartTime><FrequencyChanges><FrequencyChange><Frequency dt:dt=""r8"">3312724</Frequency><Timestamp dt:dt=""r8"">30365887784</Timestamp><Current dt:dt=""r8"">0</Current><DateUtc dt:dt=""string"">2021-08-02T09:01:15Z</DateUtc></FrequencyChange></FrequencyChanges></Clock>\n",SVO-001341-1,59.893,1.0.0.156,1,black,black,black,black,black,black,black,black,black,301752515,2.0.10.182,08-02-2021,2021/8/2 9:01,17:01:15,2.0.10.92,13,,,,,,13,1,2,13,100,94,88,81,75,69,63,56,50,,ProcTrial,,black,black,black,black,black,black,black,black,cyan,581,ListSess,0,,-999999,119,154568,{SPACE},873,155441,0,,-999999,84,151529,9,2919,154448,,,13,2,50,56,63,69,75,81,88,94,100,
SVO,1341,1,"<?xml version=""1.0""?>\n<Clock xmlns:dt=""urn:schemas-microsoft-com:datatypes""><Description dt:dt=""string"">E-Prime Primary Realtime Clock</Description><StartTime><Timestamp dt:dt=""int"">0</Timestamp><DateUtc dt:dt=""string"">2021-08-02T09:01:15Z</DateUtc></StartTime><FrequencyChanges><FrequencyChange><Frequency dt:dt=""r8"">3312724</Frequency><Timestamp dt:dt=""r8"">30365887784</Timestamp><Current dt:dt=""r8"">0</Current><DateUtc dt:dt=""string"">2021-08-02T09:01:15Z</DateUtc></FrequencyChange></FrequencyChanges></Clock>\n",SVO-001341-1,59.893,1.0.0.156,1,black,black,black,black,black,black,black,black,black,301752515,2.0.10.182,08-02-2021,2021/8/2 9:01,17:01:15,2.0.10.92,14,,,,,,14,1,2,14,90,91,93,94,95,96,98,99,100,,ProcTrial,,black,black,cyan,black,black,black,black,black,black,-2209,ListSess,0,,-999999,118,161881,{SPACE},1123,163004,0,,-999999,101,156054,3,5709,161763,,,14,2,100,96,93,89,85,81,78,74,70,
SVO,1341,1,"<?xml version=""1.0""?>\n<Clock xmlns:dt=""urn:schemas-microsoft-com:datatypes""><Description dt:dt=""string"">E-Prime Primary Realtime Clock</Description><StartTime><Timestamp dt:dt=""int"">0</Timestamp><DateUtc dt:dt=""string"">2021-08-02T09:01:15Z</DateUtc></StartTime><FrequencyChanges><FrequencyChange><Frequency dt:dt=""r8"">3312724</Frequency><Timestamp dt:dt=""r8"">30365887784</Timestamp><Current dt:dt=""r8"">0</Current><DateUtc dt:dt=""string"">2021-08-02T09:01:15Z</DateUtc></FrequencyChange></FrequencyChanges></Clock>\n",SVO-001341-1,59.893,1.0.0.156,1,black,black,black,black,black,black,black,black,black,301752515,2.0.10.182,08-02-2021,2021/8/2 9:01,17:01:15,2.0.10.92,15,0.5555556,8.33E-02,0.4444444,0.2083333,0.2857143,15,1,2,15,100,94,88,81,75,69,63,56,50,67.16666,ProcTrial,,cyan,black,black,black,black,black,black,black,black,-386,ListSess,0,,-999999,121,167625,{SPACE},731,168356,0,,-999999,101,163618,1,3886,167504,0.5202019,2,15,2,90,91,93,94,95,96,98,99,100,83
