ExperimentName,Subject,Session,Clock.Information,DataFile.Basename,Display.RefreshRate,ExperimentVersion,Group,R1Color[Session],R2Color[Session],R3Color[Session],R4Color[Session],R5Color[Session],R6Color[Session],R7Color[Session],R8Color[Session],R9Color[Session],RandomSeed,RuntimeVersion,SessionDate,SessionStartDateTimeUtc,SessionTime,StudioVersion,Block,DAL,DIA,DIC,DJG,IA_Index,ListQues,ListSess,ListSess.Cycle,ListSess.Sample,other1,other2,other3,other4,other5,other6,other7,other8,other9,otherScore,Procedure,R0Color,R1Color[Block],R2Color[Block],R3Color[Block],R4Color[Block],R5Color[Block],R6Color[Block],R7Color[Block],R8Color[Block],R9Color[Block],RespDur,Running,SlideTarget.ACC,SlideTarget.CRESP,SlideTarget.DurationError,SlideTarget.OnsetDelay,SlideTarget.OnsetTime,SlideTarget.RESP,SlideTarget.RT,SlideTarget.RTTime,SVO_angle,SVO_type,Trialnum,version,you1,you2,you3,you4,you5,you6,you7,you8,you9,yourScore
SVO,23,1,"<?xml version=""1.0""?>\n<Clock xmlns:dt=""urn:schemas-microsoft-com:datatypes""><Description dt:dt=""string"">E-Prime Primary Realtime Clock</Description><StartTime><Timestamp dt:dt=""int"">0</Timestamp><DateUtc dt:dt=""string"">2020-01-06T11:38:04Z</DateUtc></StartTime><FrequencyChanges><FrequencyChange><Frequency dt:dt=""r8"">3507548</Frequency><Timestamp dt:dt=""r8"">891756245410</Timestamp><Current dt:dt=""r8"">0</Current><DateUtc dt:dt=""string"">2020-01-06T11:38:04Z</DateUtc></FrequencyChange></FrequencyChanges></Clock>\n",SVO-023-1,60.023,1.0.0.13,1,black,black,black,black,black,black,black,black,black,-1596251312,2.0.10.182,01-06-2020,2020/1/6 11:38,19:38:04,2.0.10.92,1,,,,,,1,1,2,1,85,76,68,59,50,41,33,24,15,,ProcTrial,black,cyan,black,black,black,black,black,black,black,black,-1666,ListSess,0,,-999999,74,50893,1,5166,56059,,,1,1,85,85,85,85,85,85,85,85,85,
SVO,23,1,"<?xml version=""1.0""?>\n<Clock xmlns:dt=""urn:schemas-microsoft-com:datatypes""><Description dt:dt=""string"">E-Prime Primary Realtime Clock</Description><StartTime><Timestamp dt:dt=""int"">0</Timestamp><DateUtc dt:dt=""string"">2020-01-06T11:38:04Z</DateUtc></StartTime><FrequencyChanges><FrequencyChange><Frequency dt:dt=""r8"">3507548</Frequency><Timestamp dt:dt=""r8"">891756245410</Timestamp><Current dt:dt=""r8"">0</Current><DateUtc dt:dt=""string"">2020-01-06T11:38:04Z</DateUtc></FrequencyChange></FrequencyChanges></Clock>\n",SVO-023-1,60.023,1.0.0.13,1,black,black,black,black,black,black,black,black,black,-1596251312,2.0.10.182,01-06-2020,2020/1/6 11:38,19:38:04,2.0.10.92,2,,,,,,2,1,2,2,15,19,24,28,33,37,41,46,50,,ProcTrial,,black,black,black,black,black,black,black,black,cyan,-15957,ListSess,0,,-999999,66,59273,9,19457,78730,,,2,1,85,87,89,91,93,94,96,98,100,
SVO,23,1,"<?xml version=""1.0""?>\n<Clock xmlns:dt=""urn:schemas-microsoft-com:datatypes""><Description dt:dt=""string"">E-Prime Primary Realtime Clock</Description><StartTime><Timestamp dt:dt=""int"">0</Timestamp><DateUtc dt:dt=""string"">2020-01-06T11:38:04Z</DateUtc></StartTime><FrequencyChanges><FrequencyChange><Frequency dt:dt=""r8"">3507548</Frequency><Timestamp dt:dt=""r8"">891756245410</Timestamp><Current dt:dt=""r8"">0</Current><DateUtc dt:dt=""string"">2020-01-06T11:38:04Z</DateUtc></FrequencyChange></FrequencyChanges></Clock>\n",SVO-023-1,60.023,1.0.0.13,1,black,black,black,black,black,black,black,black,black,-1596251312,2.0.10.182,01-06-2020,2020/1/6 11:38,19:38:04,2.0.10.92,3,,,,,,3,1,2,3,100,98,96,94,93,91,89,87,85,,ProcTrial,,black,black,black,black,black,black,black,black,cyan,77,ListSess,0,,-999999,66,80515,9,3423,83938,,,3,1,50,54,59,63,68,72,76,81,85,
SVO,23,1,"<?xml version=""1.0""?>\n<Clock xmlns:dt=""urn:schemas-microsoft-com:datatypes""><Description dt:dt=""string"">E-Prime Primary Realtime Clock</Description><StartTime><Timestamp dt:dt=""int"">0</Timestamp><DateUtc dt:dt=""string"">2020-01-06T11:38:04Z</DateUtc></StartTime><FrequencyChanges><FrequencyChange><Frequency dt:dt=""r8"">3507548</Frequency><Timestamp dt:dt=""r8"">891756245410</Timestamp><Current dt:dt=""r8"">0</Current><DateUtc dt:dt=""string"">2020-01-06T11:38:04Z</DateUtc></FrequencyChange></FrequencyChanges></Clock>\n",SVO-023-1,60.023,1.0.0.13,1,black,black,black,black,black,black,black,black,black,-1596251312,2.0.10.182,01-06-2020,2020/1/6 11:38,19:38:04,2.0.10.92,4,,,,,,4,1,2,4,100,89,79,68,58,47,36,26,15,,ProcTrial,,black,black,cyan,black,black,black,black,black,black,-7791,ListSess,0,,-999999,83,86479,3,11291,97770,,,4,1,50,54,59,63,68,72,76,81,85,
SVO,23,1,"<?xml version=""1.0""?>\n<Clock xmlns:dt=""urn:schemas-microsoft-com:datatypes""><Description dt:dt=""string"">E-Prime Primary Realtime Clock</Description><StartTime><Timestamp dt:dt=""int"">0</Timestamp><DateUtc dt:dt=""string"">2020-01-06T11:38:04Z</DateUtc></StartTime><FrequencyChanges><FrequencyChange><Frequency dt:dt=""r8"">3507548</Frequency><Timestamp dt:dt=""r8"">891756245410</Timestamp><Current dt:dt=""r8"">0</Current><DateUtc dt:dt=""string"">2020-01-06T11:38:04Z</DateUtc></FrequencyChange></FrequencyChanges></Clock>\n",SVO-023-1,60.023,1.0.0.13,1,black,black,black,black,black,black,black,black,black,-1596251312,2.0.10.182,01-06-2020,2020/1/6 11:38,19:38:04,2.0.10.92,5,,,,,,5,1,2,5,50,56,63,69,75,81,88,94,100,,ProcTrial,,black,black,cyan,black,black,black,black,black,black,-9290,ListSess,0,,-999999,66,100724,3,12790,113514,,,5,1,100,94,88,81,75,69,63,56,50,
SVO,23,1,"<?xml version=""1.0""?>\n<Clock xmlns:dt=""urn:schemas-microsoft-com:datatypes""><Description dt:dt=""string"">E-Prime Primary Realtime Clock</Description><StartTime><Timestamp dt:dt=""int"">0</Timestamp><DateUtc dt:dt=""string"">2020-01-06T11:38:04Z</DateUtc></StartTime><FrequencyChanges><FrequencyChange><Frequency dt:dt=""r8"">3507548</Frequency><Timestamp dt:dt=""r8"">891756245410</Timestamp><Current dt:dt=""r8"">0</Current><DateUtc dt:dt=""string"">2020-01-06T11:38:04Z</DateUtc></FrequencyChange></FrequencyChanges></Clock>\n",SVO-023-1,60.023,1.0.0.13,1,black,black,black,black,black,black,black,black,black,-1596251312,2.0.10.182,01-06-2020,2020/1/6 11:38,19:38:04,2.0.10.92,6,,,,,,6,1,2,6,50,54,59,63,68,72,76,81,85,,ProcTrial,,black,black,black,black,black,black,black,black,cyan,-663,ListSess,0,,-999999,67,115735,9,4163,119898,,,6,1,100,98,96,94,93,91,89,87,85,
SVO,23,1,"<?xml version=""1.0""?>\n<Clock xmlns:dt=""urn:schemas-microsoft-com:datatypes""><Description dt:dt=""string"">E-Prime Primary Realtime Clock</Description><StartTime><Timestamp dt:dt=""int"">0</Timestamp><DateUtc dt:dt=""string"">2020-01-06T11:38:04Z</DateUtc></StartTime><FrequencyChanges><FrequencyChange><Frequency dt:dt=""r8"">3507548</Frequency><Timestamp dt:dt=""r8"">891756245410</Timestamp><Current dt:dt=""r8"">0</Current><DateUtc dt:dt=""string"">2020-01-06T11:38:04Z</DateUtc></FrequencyChange></FrequencyChanges></Clock>\n",SVO-023-1,60.023,1.0.0.13,1,black,black,black,black,black,black,black,black,black,-1596251312,2.0.10.182,01-06-2020,2020/1/6 11:38,19:38:04,2.0.10.92,7,,,,,,7,1,2,7,50,56,63,69,75,81,88,94,100,,ProcTrial,,black,black,black,black,black,black,black,cyan,black,-13016,ListSess,0,,-999999,67,120950,8,16516,137466,,,7,2,100,96,93,89,85,81,78,74,70,
SVO,23,1,"<?xml version=""1.0""?>\n<Clock xmlns:dt=""urn:schemas-microsoft-com:datatypes""><Description dt:dt=""string"">E-Prime Primary Realtime Clock</Description><StartTime><Timestamp dt:dt=""int"">0</Timestamp><DateUtc dt:dt=""string"">2020-01-06T11:38:04Z</DateUtc></StartTime><FrequencyChanges><FrequencyChange><Frequency dt:dt=""r8"">3507548</Frequency><Timestamp dt:dt=""r8"">891756245410</Timestamp><Current dt:dt=""r8"">0</Current><DateUtc dt:dt=""string"">2020-01-06T11:38:04Z</DateUtc></FrequencyChange></FrequencyChanges></Clock>\n",SVO-023-1,60.023,1.0.0.13,1,black,black,black,black,black,black,black,black,black,-1596251312,2.0.10.182,01-06-2020,2020/1/6 11:38,19:38:04,2.0.10.92,8,,,,,,8,1,2,8,100,99,98,96,95,94,93,91,90,,ProcTrial,,black,black,black,black,cyan,black,black,black,black,-4511,ListSess,0,,-999999,50,138543,5,8011,146554,,,8,2,90,91,93,94,95,96,98,99,100,
SVO,23,1,"<?xml version=""1.0""?>\n<Clock xmlns:dt=""urn:schemas-microsoft-com:datatypes""><Description dt:dt=""string"">E-Prime Primary Realtime Clock</Description><StartTime><Timestamp dt:dt=""int"">0</Timestamp><DateUtc dt:dt=""string"">2020-01-06T11:38:04Z</DateUtc></StartTime><FrequencyChanges><FrequencyChange><Frequency dt:dt=""r8"">3507548</Frequency><Timestamp dt:dt=""r8"">891756245410</Timestamp><Current dt:dt=""r8"">0</Current><DateUtc dt:dt=""string"">2020-01-06T11:38:04Z</DateUtc></FrequencyChange></FrequencyChanges></Clock>\n",SVO-023-1,60.023,1.0.0.13,1,black,black,black,black,black,black,black,black,black,-1596251312,2.0.10.182,01-06-2020,2020/1/6 11:38,19:38:04,2.0.10.92,9,,,,,,9,1,2,9,70,74,78,81,85,89,93,96,100,,ProcTrial,,black,cyan,black,black,black,black,black,black,black,-11507,ListSess,0,,-999999,67,147706,2,15007,162713,,,9,2,100,94,88,81,75,69,63,56,50,
SVO,23,1,"<?xml version=""1.0""?>\n<Clock xmlns:dt=""urn:schemas-microsoft-com:datatypes""><Description dt:dt=""string"">E-Prime Primary Realtime Clock</Description><StartTime><Timestamp dt:dt=""int"">0</Timestamp><DateUtc dt:dt=""string"">2020-01-06T11:38:04Z</DateUtc></StartTime><FrequencyChanges><FrequencyChange><Frequency dt:dt=""r8"">3507548</Frequency><Timestamp dt:dt=""r8"">891756245410</Timestamp><Current dt:dt=""r8"">0</Current><DateUtc dt:dt=""string"">2020-01-06T11:38:04Z</DateUtc></FrequencyChange></FrequencyChanges></Clock>\n",SVO-023-1,60.023,1.0.0.13,1,black,black,black,black,black,black,black,black,black,-1596251312,2.0.10.182,01-06-2020,2020/1/6 11:38,19:38:04,2.0.10.92,10,,,,,,10,1,2,10,70,74,78,81,85,89,93,96,100,,ProcTrial,,black,black,black,black,black,black,black,black,cyan,-3983,ListSess,0,,-999999,67,163950,9,7483,171433,,,10,2,100,99,98,96,95,94,93,91,90,
SVO,23,1,"<?xml version=""1.0""?>\n<Clock xmlns:dt=""urn:schemas-microsoft-com:datatypes""><Description dt:dt=""string"">E-Prime Primary Realtime Clock</Description><StartTime><Timestamp dt:dt=""int"">0</Timestamp><DateUtc dt:dt=""string"">2020-01-06T11:38:04Z</DateUtc></StartTime><FrequencyChanges><FrequencyChange><Frequency dt:dt=""r8"">3507548</Frequency><Timestamp dt:dt=""r8"">891756245410</Timestamp><Current dt:dt=""r8"">0</Current><DateUtc dt:dt=""string"">2020-01-06T11:38:04Z</DateUtc></FrequencyChange></FrequencyChanges></Clock>\n",SVO-023-1,60.023,1.0.0.13,1,black,black,black,black,black,black,black,black,black,-1596251312,2.0.10.182,01-06-2020,2020/1/6 11:38,19:38:04,2.0.10.92,11,,,,,,11,1,2,11,100,96,93,89,85,81,78,74,70,,ProcTrial,,black,black,black,black,cyan,black,black,black,black,-4144,ListSess,0,,-999999,66,172613,5,7644,180257,,,11,2,70,74,78,81,85,89,93,96,100,
SVO,23,1,"<?xml version=""1.0""?>\n<Clock xmlns:dt=""urn:schemas-microsoft-com:datatypes""><Description dt:dt=""string"">E-Prime Primary Realtime Clock</Description><StartTime><Timestamp dt:dt=""int"">0</Timestamp><DateUtc dt:dt=""string"">2020-01-06T11:38:04Z</DateUtc></StartTime><FrequencyChanges><FrequencyChange><Frequency dt:dt=""r8"">3507548</Frequency><Timestamp dt:dt=""r8"">891756245410</Timestamp><Current dt:dt=""r8"">0</Current><DateUtc dt:dt=""string"">2020-01-06T11:38:04Z</DateUtc></FrequencyChange></FrequencyChanges></Clock>\n",SVO-023-1,60.023,1.0.0.13,1,black,black,black,black,black,black,black,black,black,-1596251312,2.0.10.182,01-06-2020,2020/1/6 11:38,19:38:04,2.0.10.92,12,,,,,,12,1,2,12,100,99,98,96,95,94,93,91,90,,ProcTrial,,black,black,black,black,black,black,black,black,cyan,-13999,ListSess,0,,-999999,67,181110,9,17499,198609,,,12,2,50,56,63,69,75,81,88,94,100,
SVO,23,1,"<?xml version=""1.0""?>\n<Clock xmlns:dt=""urn:schemas-microsoft-com:datatypes""><Description dt:dt=""string"">E-Prime Primary Realtime Clock</Description><StartTime><Timestamp dt:dt=""int"">0</Timestamp><DateUtc dt:dt=""string"">2020-01-06T11:38:04Z</DateUtc></StartTime><FrequencyChanges><FrequencyChange><Frequency dt:dt=""r8"">3507548</Frequency><Timestamp dt:dt=""r8"">891756245410</Timestamp><Current dt:dt=""r8"">0</Current><DateUtc dt:dt=""string"">2020-01-06T11:38:04Z</DateUtc></FrequencyChange></FrequencyChanges></Clock>\n",SVO-023-1,60.023,1.0.0.13,1,black,black,black,black,black,black,black,black,black,-1596251312,2.0.10.182,01-06-2020,2020/1/6 11:38,19:38:04,2.0.10.92,13,,,,,,13,1,2,13,100,94,88,81,75,69,63,56,50,,ProcTrial,,black,black,black,black,black,black,cyan,black,black,-13670,ListSess,0,,-999999,67,199903,7,17170,217073,,,13,2,50,56,63,69,75,81,88,94,100,
SVO,23,1,"<?xml version=""1.0""?>\n<Clock xmlns:dt=""urn:schemas-microsoft-com:datatypes""><Description dt:dt=""string"">E-Prime Primary Realtime Clock</Description><StartTime><Timestamp dt:dt=""int"">0</Timestamp><DateUtc dt:dt=""string"">2020-01-06T11:38:04Z</DateUtc></StartTime><FrequencyChanges><FrequencyChange><Frequency dt:dt=""r8"">3507548</Frequency><Timestamp dt:dt=""r8"">891756245410</Timestamp><Current dt:dt=""r8"">0</Current><DateUtc dt:dt=""string"">2020-01-06T11:38:04Z</DateUtc></FrequencyChange></FrequencyChanges></Clock>\n",SVO-023-1,60.023,1.0.0.13,1,black,black,black,black,black,black,black,black,black,-1596251312,2.0.10.182,01-06-2020,2020/1/6 11:38,19:38:04,2.0.10.92,14,,,,,,14,1,2,14,90,91,93,94,95,96,98,99,100,,ProcTrial,,cyan,black,black,black,black,black,black,black,black,180,ListSess,0,,-999999,67,218129,1,3320,221449,,,14,2,100,96,93,89,85,81,78,74,70,
SVO,23,1,"<?xml version=""1.0""?>\n<Clock xmlns:dt=""urn:schemas-microsoft-com:datatypes""><Description dt:dt=""string"">E-Prime Primary Realtime Clock</Description><StartTime><Timestamp dt:dt=""int"">0</Timestamp><DateUtc dt:dt=""string"">2020-01-06T11:38:04Z</DateUtc></StartTime><FrequencyChanges><FrequencyChange><Frequency dt:dt=""r8"">3507548</Frequency><Timestamp dt:dt=""r8"">891756245410</Timestamp><Current dt:dt=""r8"">0</Current><DateUtc dt:dt=""string"">2020-01-06T11:38:04Z</DateUtc></FrequencyChange></FrequencyChanges></Clock>\n",SVO-023-1,60.023,1.0.0.13,1,black,black,black,black,black,black,black,black,black,-1596251312,2.0.10.182,01-06-2020,2020/1/6 11:38,19:38:04,2.0.10.92,15,0.5277778,0.1666667,0.4722222,4.17E-02,0.8,15,1,2,15,100,94,88,81,75,69,63,56,50,74.5,ProcTrial,,cyan,black,black,black,black,black,black,black,black,-372,ListSess,0,,-999999,67,222561,1,3872,226433,0.7277228,2,15,2,90,91,93,94,95,96,98,99,100,83.66666
SVO,4,1,"<?xml version=""1.0""?>\n<Clock xmlns:dt=""urn:schemas-microsoft-com:datatypes""><Description dt:dt=""string"">E-Prime Primary Realtime Clock</Description><StartTime><Timestamp dt:dt=""int"">0</Timestamp><DateUtc dt:dt=""string"">2020-01-04T07:52:56Z</DateUtc></StartTime><FrequencyChanges><FrequencyChange><Frequency dt:dt=""r8"">3507548</Frequency><Timestamp dt:dt=""r8"">238357987261</Timestamp><Current dt:dt=""r8"">0</Current><DateUtc dt:dt=""string"">2020-01-04T07:52:56Z</DateUtc></FrequencyChange></FrequencyChanges></Clock>\n",SVO-04-1,60.023,1.0.0.4,1,black,black,black,black,black,black,black,black,black,2135497871,2.0.10.182,01-04-2020,2020/1/4 7:52,15:52:56,2.0.10.92,1,,,,,,1,1,2,1,85,76,68,59,50,41,33,24,15,,ProcTrial,,cyan,black,black,black,black,black,black,black,black,-7703,ListSess,0,,-999999,100,34179,1,11203,45382,,,1,1,85,85,85,85,85,85,85,85,85,
SVO,4,1,"<?xml version=""1.0""?>\n<Clock xmlns:dt=""urn:schemas-microsoft-com:datatypes""><Description dt:dt=""string"">E-Prime Primary Realtime Clock</Description><StartTime><Timestamp dt:dt=""int"">0</Timestamp><DateUtc dt:dt=""string"">2020-01-04T07:52:56Z</DateUtc></StartTime><FrequencyChanges><FrequencyChange><Frequency dt:dt=""r8"">3507548</Frequency><Timestamp dt:dt=""r8"">238357987261</Timestamp><Current dt:dt=""r8"">0</Current><DateUtc dt:dt=""string"">2020-01-04T07:52:56Z</DateUtc></FrequencyChange></FrequencyChanges></Clock>\n",SVO-04-1,60.023,1.0.0.4,1,black,black,black,black,black,black,black,black,black,2135497871,2.0.10.182,01-04-2020,2020/1/4 7:52,15:52:56,2.0.10.92,2,,,,,,2,1,2,2,15,19,24,28,33,37,41,46,50,,ProcTrial,,black,black,black,black,black,black,black,black,cyan,-2899,ListSess,0,,-999999,67,49990,9,6399,56389,,,2,1,85,87,89,91,93,94,96,98,100,
SVO,4,1,"<?xml version=""1.0""?>\n<Clock xmlns:dt=""urn:schemas-microsoft-com:datatypes""><Description dt:dt=""string"">E-Prime Primary Realtime Clock</Description><StartTime><Timestamp dt:dt=""int"">0</Timestamp><DateUtc dt:dt=""string"">2020-01-04T07:52:56Z</DateUtc></StartTime><FrequencyChanges><FrequencyChange><Frequency dt:dt=""r8"">3507548</Frequency><Timestamp dt:dt=""r8"">238357987261</Timestamp><Current dt:dt=""r8"">0</Current><DateUtc dt:dt=""string"">2020-01-04T07:52:56Z</DateUtc></FrequencyChange></FrequencyChanges></Clock>\n",SVO-04-1,60.023,1.0.0.4,1,black,black,black,black,black,black,black,black,black,2135497871,2.0.10.182,01-04-2020,2020/1/4 7:52,15:52:56,2.0.10.92,3,,,,,,3,1,2,3,100,98,96,94,93,91,89,87,85,,ProcTrial,,black,black,black,black,black,black,black,black,cyan,-6235,ListSess,0,,-999999,66,61285,9,9735,71020,,,3,1,50,54,59,63,68,72,76,81,85,
SVO,4,1,"<?xml version=""1.0""?>\n<Clock xmlns:dt=""urn:schemas-microsoft-com:datatypes""><Description dt:dt=""string"">E-Prime Primary Realtime Clock</Description><StartTime><Timestamp dt:dt=""int"">0</Timestamp><DateUtc dt:dt=""string"">2020-01-04T07:52:56Z</DateUtc></StartTime><FrequencyChanges><FrequencyChange><Frequency dt:dt=""r8"">3507548</Frequency><Timestamp dt:dt=""r8"">238357987261</Timestamp><Current dt:dt=""r8"">0</Current><DateUtc dt:dt=""string"">2020-01-04T07:52:56Z</DateUtc></FrequencyChange></FrequencyChanges></Clock>\n",SVO-04-1,60.023,1.0.0.4,1,black,black,black,black,black,black,black,black,black,2135497871,2.0.10.182,01-04-2020,2020/1/4 7:52,15:52:56,2.0.10.92,4,,,,,,4,1,2,4,100,89,79,68,58,47,36,26,15,,ProcTrial,,black,black,black,cyan,black,black,black,black,black,-12937,ListSess,0,,-999999,67,72831,4,16437,89268,,,4,1,50,54,59,63,68,72,76,81,85,
SVO,4,1,"<?xml version=""1.0""?>\n<Clock xmlns:dt=""urn:schemas-microsoft-com:datatypes""><Description dt:dt=""string"">E-Prime Primary Realtime Clock</Description><StartTime><Timestamp dt:dt=""int"">0</Timestamp><DateUtc dt:dt=""string"">2020-01-04T07:52:56Z</DateUtc></StartTime><FrequencyChanges><FrequencyChange><Frequency dt:dt=""r8"">3507548</Frequency><Timestamp dt:dt=""r8"">238357987261</Timestamp><Current dt:dt=""r8"">0</Current><DateUtc dt:dt=""string"">2020-01-04T07:52:56Z</DateUtc></FrequencyChange></FrequencyChanges></Clock>\n",SVO-04-1,60.023,1.0.0.4,1,black,black,black,black,black,black,black,black,black,2135497871,2.0.10.182,01-04-2020,2020/1/4 7:52,15:52:56,2.0.10.92,5,,,,,,5,1,2,5,50,56,63,69,75,81,88,94,100,,ProcTrial,,black,black,black,black,cyan,black,black,black,black,-2655,ListSess,0,,-999999,66,91257,5,6155,97412,,,5,1,100,94,88,81,75,69,63,56,50,
SVO,4,1,"<?xml version=""1.0""?>\n<Clock xmlns:dt=""urn:schemas-microsoft-com:datatypes""><Description dt:dt=""string"">E-Prime Primary Realtime Clock</Description><StartTime><Timestamp dt:dt=""int"">0</Timestamp><DateUtc dt:dt=""string"">2020-01-04T07:52:56Z</DateUtc></StartTime><FrequencyChanges><FrequencyChange><Frequency dt:dt=""r8"">3507548</Frequency><Timestamp dt:dt=""r8"">238357987261</Timestamp><Current dt:dt=""r8"">0</Current><DateUtc dt:dt=""string"">2020-01-04T07:52:56Z</DateUtc></FrequencyChange></FrequencyChanges></Clock>\n",SVO-04-1,60.023,1.0.0.4,1,black,black,black,black,black,black,black,black,black,2135497871,2.0.10.182,01-04-2020,2020/1/4 7:52,15:52:56,2.0.10.92,6,,,,,,6,1,2,6,50,54,59,63,68,72,76,81,85,,ProcTrial,,black,black,black,black,cyan,black,black,black,black,-5159,ListSess,0,,-999999,66,99337,5,8659,107996,,,6,1,100,98,96,94,93,91,89,87,85,
SVO,4,1,"<?xml version=""1.0""?>\n<Clock xmlns:dt=""urn:schemas-microsoft-com:datatypes""><Description dt:dt=""string"">E-Prime Primary Realtime Clock</Description><StartTime><Timestamp dt:dt=""int"">0</Timestamp><DateUtc dt:dt=""string"">2020-01-04T07:52:56Z</DateUtc></StartTime><FrequencyChanges><FrequencyChange><Frequency dt:dt=""r8"">3507548</Frequency><Timestamp dt:dt=""r8"">238357987261</Timestamp><Current dt:dt=""r8"">0</Current><DateUtc dt:dt=""string"">2020-01-04T07:52:56Z</DateUtc></FrequencyChange></FrequencyChanges></Clock>\n",SVO-04-1,60.023,1.0.0.4,1,black,black,black,black,black,black,black,black,black,2135497871,2.0.10.182,01-04-2020,2020/1/4 7:52,15:52:56,2.0.10.92,7,,,,,,7,1,2,7,50,56,63,69,75,81,88,94,100,,ProcTrial,,black,black,black,black,black,cyan,black,black,black,-1495,ListSess,0,,-999999,66,109633,6,4995,114628,,,7,2,100,96,93,89,85,81,78,74,70,
SVO,4,1,"<?xml version=""1.0""?>\n<Clock xmlns:dt=""urn:schemas-microsoft-com:datatypes""><Description dt:dt=""string"">E-Prime Primary Realtime Clock</Description><StartTime><Timestamp dt:dt=""int"">0</Timestamp><DateUtc dt:dt=""string"">2020-01-04T07:52:56Z</DateUtc></StartTime><FrequencyChanges><FrequencyChange><Frequency dt:dt=""r8"">3507548</Frequency><Timestamp dt:dt=""r8"">238357987261</Timestamp><Current dt:dt=""r8"">0</Current><DateUtc dt:dt=""string"">2020-01-04T07:52:56Z</DateUtc></FrequencyChange></FrequencyChanges></Clock>\n",SVO-04-1,60.023,1.0.0.4,1,black,black,black,black,black,black,black,black,black,2135497871,2.0.10.182,01-04-2020,2020/1/4 7:52,15:52:56,2.0.10.92,8,,,,,,8,1,2,8,100,99,98,96,95,94,93,91,90,,ProcTrial,,black,black,black,black,cyan,black,black,black,black,528,ListSess,0,,-999999,49,116880,5,2972,119852,,,8,2,90,91,93,94,95,96,98,99,100,
SVO,4,1,"<?xml version=""1.0""?>\n<Clock xmlns:dt=""urn:schemas-microsoft-com:datatypes""><Description dt:dt=""string"">E-Prime Primary Realtime Clock</Description><StartTime><Timestamp dt:dt=""int"">0</Timestamp><DateUtc dt:dt=""string"">2020-01-04T07:52:56Z</DateUtc></StartTime><FrequencyChanges><FrequencyChange><Frequency dt:dt=""r8"">3507548</Frequency><Timestamp dt:dt=""r8"">238357987261</Timestamp><Current dt:dt=""r8"">0</Current><DateUtc dt:dt=""string"">2020-01-04T07:52:56Z</DateUtc></FrequencyChange></FrequencyChanges></Clock>\n",SVO-04-1,60.023,1.0.0.4,1,black,black,black,black,black,black,black,black,black,2135497871,2.0.10.182,01-04-2020,2020/1/4 7:52,15:52:56,2.0.10.92,9,,,,,,9,1,2,9,70,74,78,81,85,89,93,96,100,,ProcTrial,,black,black,black,cyan,black,black,black,black,black,1329,ListSess,0,,-999999,83,121329,4,2171,123500,,,9,2,100,94,88,81,75,69,63,56,50,
SVO,4,1,"<?xml version=""1.0""?>\n<Clock xmlns:dt=""urn:schemas-microsoft-com:datatypes""><Description dt:dt=""string"">E-Prime Primary Realtime Clock</Description><StartTime><Timestamp dt:dt=""int"">0</Timestamp><DateUtc dt:dt=""string"">2020-01-04T07:52:56Z</DateUtc></StartTime><FrequencyChanges><FrequencyChange><Frequency dt:dt=""r8"">3507548</Frequency><Timestamp dt:dt=""r8"">238357987261</Timestamp><Current dt:dt=""r8"">0</Current><DateUtc dt:dt=""string"">2020-01-04T07:52:56Z</DateUtc></FrequencyChange></FrequencyChanges></Clock>\n",SVO-04-1,60.023,1.0.0.4,1,black,black,black,black,black,black,black,black,black,2135497871,2.0.10.182,01-04-2020,2020/1/4 7:52,15:52:56,2.0.10.92,10,,,,,,10,1,2,10,70,74,78,81,85,89,93,96,100,,ProcTrial,,black,black,black,black,black,black,cyan,black,black,-15266,ListSess,0,,-999999,67,125261,7,18766,144027,,,10,2,100,99,98,96,95,94,93,91,90,
SVO,4,1,"<?xml version=""1.0""?>\n<Clock xmlns:dt=""urn:schemas-microsoft-com:datatypes""><Description dt:dt=""string"">E-Prime Primary Realtime Clock</Description><StartTime><Timestamp dt:dt=""int"">0</Timestamp><DateUtc dt:dt=""string"">2020-01-04T07:52:56Z</DateUtc></StartTime><FrequencyChanges><FrequencyChange><Frequency dt:dt=""r8"">3507548</Frequency><Timestamp dt:dt=""r8"">238357987261</Timestamp><Current dt:dt=""r8"">0</Current><DateUtc dt:dt=""string"">2020-01-04T07:52:56Z</DateUtc></FrequencyChange></FrequencyChanges></Clock>\n",SVO-04-1,60.023,1.0.0.4,1,black,black,black,black,black,black,black,black,black,2135497871,2.0.10.182,01-04-2020,2020/1/4 7:52,15:52:56,2.0.10.92,11,,,,,,11,1,2,11,100,96,93,89,85,81,78,74,70,,ProcTrial,,black,black,black,black,cyan,black,black,black,black,-164,ListSess,0,,-999999,67,145603,5,3664,149267,,,11,2,70,74,78,81,85,89,93,96,100,
SVO,4,1,"<?xml version=""1.0""?>\n<Clock xmlns:dt=""urn:schemas-microsoft-com:datatypes""><Description dt:dt=""string"">E-Prime Primary Realtime Clock</Description><StartTime><Timestamp dt:dt=""int"">0</Timestamp><DateUtc dt:dt=""string"">2020-01-04T07:52:56Z</DateUtc></StartTime><FrequencyChanges><FrequencyChange><Frequency dt:dt=""r8"">3507548</Frequency><Timestamp dt:dt=""r8"">238357987261</Timestamp><Current dt:dt=""r8"">0</Current><DateUtc dt:dt=""string"">2020-01-04T07:52:56Z</DateUtc></FrequencyChange></FrequencyChanges></Clock>\n",SVO-04-1,60.023,1.0.0.4,1,black,black,black,black,black,black,black,black,black,2135497871,2.0.10.182,01-04-2020,2020/1/4 7:52,15:52:56,2.0.10.92,12,,,,,,12,1,2,12,100,99,98,96,95,94,93,91,90,,ProcTrial,,black,black,black,black,black,black,black,black,cyan,-3469,ListSess,0,,-999999,83,150634,9,6969,157603,,,12,2,50,56,63,69,75,81,88,94,100,
SVO,4,1,"<?xml version=""1.0""?>\n<Clock xmlns:dt=""urn:schemas-microsoft-com:datatypes""><Description dt:dt=""string"">E-Prime Primary Realtime Clock</Description><StartTime><Timestamp dt:dt=""int"">0</Timestamp><DateUtc dt:dt=""string"">2020-01-04T07:52:56Z</DateUtc></StartTime><FrequencyChanges><FrequencyChange><Frequency dt:dt=""r8"">3507548</Frequency><Timestamp dt:dt=""r8"">238357987261</Timestamp><Current dt:dt=""r8"">0</Current><DateUtc dt:dt=""string"">2020-01-04T07:52:56Z</DateUtc></FrequencyChange></FrequencyChanges></Clock>\n",SVO-04-1,60.023,1.0.0.4,1,black,black,black,black,black,black,black,black,black,2135497871,2.0.10.182,01-04-2020,2020/1/4 7:52,15:52:56,2.0.10.92,13,,,,,,13,1,2,13,100,94,88,81,75,69,63,56,50,,ProcTrial,,black,black,black,black,cyan,black,black,black,black,-33,ListSess,0,,-999999,66,159414,5,3533,162947,,,13,2,50,56,63,69,75,81,88,94,100,
SVO,4,1,"<?xml version=""1.0""?>\n<Clock xmlns:dt=""urn:schemas-microsoft-com:datatypes""><Description dt:dt=""string"">E-Prime Primary Realtime Clock</Description><StartTime><Timestamp dt:dt=""int"">0</Timestamp><DateUtc dt:dt=""string"">2020-01-04T07:52:56Z</DateUtc></StartTime><FrequencyChanges><FrequencyChange><Frequency dt:dt=""r8"">3507548</Frequency><Timestamp dt:dt=""r8"">238357987261</Timestamp><Current dt:dt=""r8"">0</Current><DateUtc dt:dt=""string"">2020-01-04T07:52:56Z</DateUtc></FrequencyChange></FrequencyChanges></Clock>\n",SVO-04-1,60.023,1.0.0.4,1,black,black,black,black,black,black,black,black,black,2135497871,2.0.10.182,01-04-2020,2020/1/4 7:52,15:52:56,2.0.10.92,14,,,,,,14,1,2,14,90,91,93,94,95,96,98,99,100,,ProcTrial,,cyan,black,black,black,black,black,black,black,black,323,ListSess,0,,-999999,84,164146,1,3177,167323,,,14,2,100,96,93,89,85,81,78,74,70,
SVO,4,1,"<?xml version=""1.0""?>\n<Clock xmlns:dt=""urn:schemas-microsoft-com:datatypes""><Description dt:dt=""string"">E-Prime Primary Realtime Clock</Description><StartTime><Timestamp dt:dt=""int"">0</Timestamp><DateUtc dt:dt=""string"">2020-01-04T07:52:56Z</DateUtc></StartTime><FrequencyChanges><FrequencyChange><Frequency dt:dt=""r8"">3507548</Frequency><Timestamp dt:dt=""r8"">238357987261</Timestamp><Current dt:dt=""r8"">0</Current><DateUtc dt:dt=""string"">2020-01-04T07:52:56Z</DateUtc></FrequencyChange></FrequencyChanges></Clock>\n",SVO-04-1,60.023,1.0.0.4,1,black,black,black,black,black,black,black,black,black,2135497871,2.0.10.182,01-04-2020,2020/1/4 7:52,15:52:56,2.0.10.92,15,0.5277778,5.56E-02,0.4722222,0.1666667,0.25,15,1,2,15,100,94,88,81,75,69,63,56,50,71.83334,ProcTrial,,cyan,black,black,black,black,black,black,black,black,1064,ListSess,0,,-999999,66,168727,1,2436,171163,0.6517414,2,15,2,90,91,93,94,95,96,98,99,100,83.5
SVO,5,1,"<?xml version=""1.0""?>\n<Clock xmlns:dt=""urn:schemas-microsoft-com:datatypes""><Description dt:dt=""string"">E-Prime Primary Realtime Clock</Description><StartTime><Timestamp dt:dt=""int"">0</Timestamp><DateUtc dt:dt=""string"">2020-01-04T08:02:56Z</DateUtc></StartTime><FrequencyChanges><FrequencyChange><Frequency dt:dt=""r8"">3215253</Frequency><Timestamp dt:dt=""r8"">216360791725</Timestamp><Current dt:dt=""r8"">0</Current><DateUtc dt:dt=""string"">2020-01-04T08:02:56Z</DateUtc></FrequencyChange></FrequencyChanges></Clock>\n",SVO-05-1,60.004,1.0.0.1,1,black,black,black,black,black,black,black,black,black,1613055615,2.0.10.182,01-04-2020,2020/1/4 8:02,16:02:56,2.0.10.92,1,,,,,,1,1,2,1,85,76,68,59,50,41,33,24,15,,ProcTrial,,cyan,black,black,black,black,black,black,black,black,-6094,ListSess,0,,-999999,117,45652,1,9594,55246,,,1,1,85,85,85,85,85,85,85,85,85,
SVO,5,1,"<?xml version=""1.0""?>\n<Clock xmlns:dt=""urn:schemas-microsoft-com:datatypes""><Description dt:dt=""string"">E-Prime Primary Realtime Clock</Description><StartTime><Timestamp dt:dt=""int"">0</Timestamp><DateUtc dt:dt=""string"">2020-01-04T08:02:56Z</DateUtc></StartTime><FrequencyChanges><FrequencyChange><Frequency dt:dt=""r8"">3215253</Frequency><Timestamp dt:dt=""r8"">216360791725</Timestamp><Current dt:dt=""r8"">0</Current><DateUtc dt:dt=""string"">2020-01-04T08:02:56Z</DateUtc></FrequencyChange></FrequencyChanges></Clock>\n",SVO-05-1,60.004,1.0.0.1,1,black,black,black,black,black,black,black,black,black,1613055615,2.0.10.182,01-04-2020,2020/1/4 8:02,16:02:56,2.0.10.92,2,,,,,,2,1,2,2,15,19,24,28,33,37,41,46,50,,ProcTrial,,black,black,black,black,black,black,black,black,cyan,-3265,ListSess,0,,-999999,100,73800,9,6765,80565,,,2,1,85,87,89,91,93,94,96,98,100,
SVO,5,1,"<?xml version=""1.0""?>\n<Clock xmlns:dt=""urn:schemas-microsoft-com:datatypes""><Description dt:dt=""string"">E-Prime Primary Realtime Clock</Description><StartTime><Timestamp dt:dt=""int"">0</Timestamp><DateUtc dt:dt=""string"">2020-01-04T08:02:56Z</DateUtc></StartTime><FrequencyChanges><FrequencyChange><Frequency dt:dt=""r8"">3215253</Frequency><Timestamp dt:dt=""r8"">216360791725</Timestamp><Current dt:dt=""r8"">0</Current><DateUtc dt:dt=""string"">2020-01-04T08:02:56Z</DateUtc></FrequencyChange></FrequencyChanges></Clock>\n",SVO-05-1,60.004,1.0.0.1,1,black,black,black,black,black,black,black,black,black,1613055615,2.0.10.182,01-04-2020,2020/1/4 8:02,16:02:56,2.0.10.92,3,,,,,,3,1,2,3,100,98,96,94,93,91,89,87,85,,ProcTrial,,black,black,black,black,black,black,black,black,cyan,-5513,ListSess,0,,-999999,117,82000,9,9013,91013,,,3,1,50,54,59,63,68,72,76,81,85,
SVO,5,1,"<?xml version=""1.0""?>\n<Clock xmlns:dt=""urn:schemas-microsoft-com:datatypes""><Description dt:dt=""string"">E-Prime Primary Realtime Clock</Description><StartTime><Timestamp dt:dt=""int"">0</Timestamp><DateUtc dt:dt=""string"">2020-01-04T08:02:56Z</DateUtc></StartTime><FrequencyChanges><FrequencyChange><Frequency dt:dt=""r8"">3215253</Frequency><Timestamp dt:dt=""r8"">216360791725</Timestamp><Current dt:dt=""r8"">0</Current><DateUtc dt:dt=""string"">2020-01-04T08:02:56Z</DateUtc></FrequencyChange></FrequencyChanges></Clock>\n",SVO-05-1,60.004,1.0.0.1,1,black,black,black,black,black,black,black,black,black,1613055615,2.0.10.182,01-04-2020,2020/1/4 8:02,16:02:56,2.0.10.92,4,,,,,,4,1,2,4,100,89,79,68,58,47,36,26,15,,ProcTrial,,cyan,black,black,black,black,black,black,black,black,-3348,ListSess,0,,-999999,117,92749,1,6848,99597,,,4,1,50,54,59,63,68,72,76,81,85,
SVO,5,1,"<?xml version=""1.0""?>\n<Clock xmlns:dt=""urn:schemas-microsoft-com:datatypes""><Description dt:dt=""string"">E-Prime Primary Realtime Clock</Description><StartTime><Timestamp dt:dt=""int"">0</Timestamp><DateUtc dt:dt=""string"">2020-01-04T08:02:56Z</DateUtc></StartTime><FrequencyChanges><FrequencyChange><Frequency dt:dt=""r8"">3215253</Frequency><Timestamp dt:dt=""r8"">216360791725</Timestamp><Current dt:dt=""r8"">0</Current><DateUtc dt:dt=""string"">2020-01-04T08:02:56Z</DateUtc></FrequencyChange></FrequencyChanges></Clock>\n",SVO-05-1,60.004,1.0.0.1,1,black,black,black,black,black,black,black,black,black,1613055615,2.0.10.182,01-04-2020,2020/1/4 8:02,16:02:56,2.0.10.92,5,,,,,,5,1,2,5,50,56,63,69,75,81,88,94,100,,ProcTrial,,black,black,black,black,cyan,black,black,black,black,-714,ListSess,0,,-999999,116,104031,5,4214,108245,,,5,1,100,94,88,81,75,69,63,56,50,
SVO,5,1,"<?xml version=""1.0""?>\n<Clock xmlns:dt=""urn:schemas-microsoft-com:datatypes""><Description dt:dt=""string"">E-Prime Primary Realtime Clock</Description><StartTime><Timestamp dt:dt=""int"">0</Timestamp><DateUtc dt:dt=""string"">2020-01-04T08:02:56Z</DateUtc></StartTime><FrequencyChanges><FrequencyChange><Frequency dt:dt=""r8"">3215253</Frequency><Timestamp dt:dt=""r8"">216360791725</Timestamp><Current dt:dt=""r8"">0</Current><DateUtc dt:dt=""string"">2020-01-04T08:02:56Z</DateUtc></FrequencyChange></FrequencyChanges></Clock>\n",SVO-05-1,60.004,1.0.0.1,1,black,black,black,black,black,black,black,black,black,1613055615,2.0.10.182,01-04-2020,2020/1/4 8:02,16:02:56,2.0.10.92,6,,,,,,6,1,2,6,50,54,59,63,68,72,76,81,85,,ProcTrial,,black,black,black,black,black,black,black,black,cyan,1069,ListSess,0,,-999999,116,109414,9,2431,111845,,,6,1,100,98,96,94,93,91,89,87,85,
SVO,5,1,"<?xml version=""1.0""?>\n<Clock xmlns:dt=""urn:schemas-microsoft-com:datatypes""><Description dt:dt=""string"">E-Prime Primary Realtime Clock</Description><StartTime><Timestamp dt:dt=""int"">0</Timestamp><DateUtc dt:dt=""string"">2020-01-04T08:02:56Z</DateUtc></StartTime><FrequencyChanges><FrequencyChange><Frequency dt:dt=""r8"">3215253</Frequency><Timestamp dt:dt=""r8"">216360791725</Timestamp><Current dt:dt=""r8"">0</Current><DateUtc dt:dt=""string"">2020-01-04T08:02:56Z</DateUtc></FrequencyChange></FrequencyChanges></Clock>\n",SVO-05-1,60.004,1.0.0.1,1,black,black,black,black,black,black,black,black,black,1613055615,2.0.10.182,01-04-2020,2020/1/4 8:02,16:02:56,2.0.10.92,7,,,,,,7,1,2,7,50,56,63,69,75,81,88,94,100,,ProcTrial,,black,black,black,black,black,cyan,black,black,black,-5095,ListSess,0,,-999999,116,113114,6,8595,121709,,,7,2,100,96,93,89,85,81,78,74,70,
SVO,5,1,"<?xml version=""1.0""?>\n<Clock xmlns:dt=""urn:schemas-microsoft-com:datatypes""><Description dt:dt=""string"">E-Prime Primary Realtime Clock</Description><StartTime><Timestamp dt:dt=""int"">0</Timestamp><DateUtc dt:dt=""string"">2020-01-04T08:02:56Z</DateUtc></StartTime><FrequencyChanges><FrequencyChange><Frequency dt:dt=""r8"">3215253</Frequency><Timestamp dt:dt=""r8"">216360791725</Timestamp><Current dt:dt=""r8"">0</Current><DateUtc dt:dt=""string"">2020-01-04T08:02:56Z</DateUtc></FrequencyChange></FrequencyChanges></Clock>\n",SVO-05-1,60.004,1.0.0.1,1,black,black,black,black,black,black,black,black,black,1613055615,2.0.10.182,01-04-2020,2020/1/4 8:02,16:02:56,2.0.10.92,8,,,,,,8,1,2,8,100,99,98,96,95,94,93,91,90,,ProcTrial,,black,black,black,black,cyan,black,black,black,black,-258,ListSess,0,,-999999,117,122847,5,3758,126605,,,8,2,90,91,93,94,95,96,98,99,100,
SVO,5,1,"<?xml version=""1.0""?>\n<Clock xmlns:dt=""urn:schemas-microsoft-com:datatypes""><Description dt:dt=""string"">E-Prime Primary Realtime Clock</Description><StartTime><Timestamp dt:dt=""int"">0</Timestamp><DateUtc dt:dt=""string"">2020-01-04T08:02:56Z</DateUtc></StartTime><FrequencyChanges><FrequencyChange><Frequency dt:dt=""r8"">3215253</Frequency><Timestamp dt:dt=""r8"">216360791725</Timestamp><Current dt:dt=""r8"">0</Current><DateUtc dt:dt=""string"">2020-01-04T08:02:56Z</DateUtc></FrequencyChange></FrequencyChanges></Clock>\n",SVO-05-1,60.004,1.0.0.1,1,black,black,black,black,black,black,black,black,black,1613055615,2.0.10.182,01-04-2020,2020/1/4 8:02,16:02:56,2.0.10.92,9,,,,,,9,1,2,9,70,74,78,81,85,89,93,96,100,,ProcTrial,,black,black,black,cyan,black,black,black,black,black,-1834,ListSess,0,,-999999,117,127647,4,5334,132981,,,9,2,100,94,88,81,75,69,63,56,50,
SVO,5,1,"<?xml version=""1.0""?>\n<Clock xmlns:dt=""urn:schemas-microsoft-com:datatypes""><Description dt:dt=""string"">E-Prime Primary Realtime Clock</Description><StartTime><Timestamp dt:dt=""int"">0</Timestamp><DateUtc dt:dt=""string"">2020-01-04T08:02:56Z</DateUtc></StartTime><FrequencyChanges><FrequencyChange><Frequency dt:dt=""r8"">3215253</Frequency><Timestamp dt:dt=""r8"">216360791725</Timestamp><Current dt:dt=""r8"">0</Current><DateUtc dt:dt=""string"">2020-01-04T08:02:56Z</DateUtc></FrequencyChange></FrequencyChanges></Clock>\n",SVO-05-1,60.004,1.0.0.1,1,black,black,black,black,black,black,black,black,black,1613055615,2.0.10.182,01-04-2020,2020/1/4 8:02,16:02:56,2.0.10.92,10,,,,,,10,1,2,10,70,74,78,81,85,89,93,96,100,,ProcTrial,,black,black,black,black,black,black,black,black,cyan,-2502,ListSess,0,,-999999,117,133963,9,6002,139965,,,10,2,100,99,98,96,95,94,93,91,90,
SVO,5,1,"<?xml version=""1.0""?>\n<Clock xmlns:dt=""urn:schemas-microsoft-com:datatypes""><Description dt:dt=""string"">E-Prime Primary Realtime Clock</Description><StartTime><Timestamp dt:dt=""int"">0</Timestamp><DateUtc dt:dt=""string"">2020-01-04T08:02:56Z</DateUtc></StartTime><FrequencyChanges><FrequencyChange><Frequency dt:dt=""r8"">3215253</Frequency><Timestamp dt:dt=""r8"">216360791725</Timestamp><Current dt:dt=""r8"">0</Current><DateUtc dt:dt=""string"">2020-01-04T08:02:56Z</DateUtc></FrequencyChange></FrequencyChanges></Clock>\n",SVO-05-1,60.004,1.0.0.1,1,black,black,black,black,black,black,black,black,black,1613055615,2.0.10.182,01-04-2020,2020/1/4 8:02,16:02:56,2.0.10.92,11,,,,,,11,1,2,11,100,96,93,89,85,81,78,74,70,,ProcTrial,,black,black,black,black,cyan,black,black,black,black,241,ListSess,0,,-999999,117,141729,5,3259,144988,,,11,2,70,74,78,81,85,89,93,96,100,
SVO,5,1,"<?xml version=""1.0""?>\n<Clock xmlns:dt=""urn:schemas-microsoft-com:datatypes""><Description dt:dt=""string"">E-Prime Primary Realtime Clock</Description><StartTime><Timestamp dt:dt=""int"">0</Timestamp><DateUtc dt:dt=""string"">2020-01-04T08:02:56Z</DateUtc></StartTime><FrequencyChanges><FrequencyChange><Frequency dt:dt=""r8"">3215253</Frequency><Timestamp dt:dt=""r8"">216360791725</Timestamp><Current dt:dt=""r8"">0</Current><DateUtc dt:dt=""string"">2020-01-04T08:02:56Z</DateUtc></FrequencyChange></FrequencyChanges></Clock>\n",SVO-05-1,60.004,1.0.0.1,1,black,black,black,black,black,black,black,black,black,1613055615,2.0.10.182,01-04-2020,2020/1/4 8:02,16:02:56,2.0.10.92,12,,,,,,12,1,2,12,100,99,98,96,95,94,93,91,90,,ProcTrial,,black,black,black,black,black,black,black,black,cyan,-184,ListSess,0,,-999999,116,145945,9,3684,149629,,,12,2,50,56,63,69,75,81,88,94,100,
SVO,5,1,"<?xml version=""1.0""?>\n<Clock xmlns:dt=""urn:schemas-microsoft-com:datatypes""><Description dt:dt=""string"">E-Prime Primary Realtime Clock</Description><StartTime><Timestamp dt:dt=""int"">0</Timestamp><DateUtc dt:dt=""string"">2020-01-04T08:02:56Z</DateUtc></StartTime><FrequencyChanges><FrequencyChange><Frequency dt:dt=""r8"">3215253</Frequency><Timestamp dt:dt=""r8"">216360791725</Timestamp><Current dt:dt=""r8"">0</Current><DateUtc dt:dt=""string"">2020-01-04T08:02:56Z</DateUtc></FrequencyChange></FrequencyChanges></Clock>\n",SVO-05-1,60.004,1.0.0.1,1,black,black,black,black,black,black,black,black,black,1613055615,2.0.10.182,01-04-2020,2020/1/4 8:02,16:02:56,2.0.10.92,13,,,,,,13,1,2,13,100,94,88,81,75,69,63,56,50,,ProcTrial,,black,black,black,black,cyan,black,black,black,black,-2255,ListSess,0,,-999999,100,150745,5,5755,156500,,,13,2,50,56,63,69,75,81,88,94,100,
SVO,5,1,"<?xml version=""1.0""?>\n<Clock xmlns:dt=""urn:schemas-microsoft-com:datatypes""><Description dt:dt=""string"">E-Prime Primary Realtime Clock</Description><StartTime><Timestamp dt:dt=""int"">0</Timestamp><DateUtc dt:dt=""string"">2020-01-04T08:02:56Z</DateUtc></StartTime><FrequencyChanges><FrequencyChange><Frequency dt:dt=""r8"">3215253</Frequency><Timestamp dt:dt=""r8"">216360791725</Timestamp><Current dt:dt=""r8"">0</Current><DateUtc dt:dt=""string"">2020-01-04T08:02:56Z</DateUtc></FrequencyChange></FrequencyChanges></Clock>\n",SVO-05-1,60.004,1.0.0.1,1,black,black,black,black,black,black,black,black,black,1613055615,2.0.10.182,01-04-2020,2020/1/4 8:02,16:02:56,2.0.10.92,14,,,,,,14,1,2,14,90,91,93,94,95,96,98,99,100,,ProcTrial,,black,black,black,black,black,black,black,black,cyan,-2528,ListSess,0,,-999999,116,157544,9,6028,163572,,,14,2,100,96,93,89,85,81,78,74,70,
SVO,5,1,"<?xml version=""1.0""?>\n<Clock xmlns:dt=""urn:schemas-microsoft-com:datatypes""><Description dt:dt=""string"">E-Prime Primary Realtime Clock</Description><StartTime><Timestamp dt:dt=""int"">0</Timestamp><DateUtc dt:dt=""string"">2020-01-04T08:02:56Z</DateUtc></StartTime><FrequencyChanges><FrequencyChange><Frequency dt:dt=""r8"">3215253</Frequency><Timestamp dt:dt=""r8"">216360791725</Timestamp><Current dt:dt=""r8"">0</Current><DateUtc dt:dt=""string"">2020-01-04T08:02:56Z</DateUtc></FrequencyChange></FrequencyChanges></Clock>\n",SVO-05-1,60.004,1.0.0.1,1,black,black,black,black,black,black,black,black,black,1613055615,2.0.10.182,01-04-2020,2020/1/4 8:02,16:02:56,2.0.10.92,15,0.4166667,0.1388889,0.5833333,0.3333333,0.2941177,15,1,2,15,100,94,88,81,75,69,63,56,50,80,ProcTrial,,black,black,cyan,black,black,black,black,black,black,-7864,ListSess,0,,-999999,117,164544,3,11364,175908,1,2,15,2,90,91,93,94,95,96,98,99,100,80
SVO,6,1,"<?xml version=""1.0""?>\n<Clock xmlns:dt=""urn:schemas-microsoft-com:datatypes""><Description dt:dt=""string"">E-Prime Primary Realtime Clock</Description><StartTime><Timestamp dt:dt=""int"">0</Timestamp><DateUtc dt:dt=""string"">2020-01-04T08:58:45Z</DateUtc></StartTime><FrequencyChanges><FrequencyChange><Frequency dt:dt=""r8"">3507548</Frequency><Timestamp dt:dt=""r8"">252209851550</Timestamp><Current dt:dt=""r8"">0</Current><DateUtc dt:dt=""string"">2020-01-04T08:58:45Z</DateUtc></FrequencyChange></FrequencyChanges></Clock>\n",SVO-06-1,60.023,1.0.0.5,1,black,black,black,black,black,black,black,black,black,-1192539381,2.0.10.182,01-04-2020,2020/1/4 8:58,16:58:46,2.0.10.92,1,,,,,,1,1,2,1,85,76,68,59,50,41,33,24,15,,ProcTrial,,cyan,black,black,black,black,black,black,black,black,-2501,ListSess,0,,-999999,83,22941,1,6001,28942,,,1,1,85,85,85,85,85,85,85,85,85,
SVO,6,1,"<?xml version=""1.0""?>\n<Clock xmlns:dt=""urn:schemas-microsoft-com:datatypes""><Description dt:dt=""string"">E-Prime Primary Realtime Clock</Description><StartTime><Timestamp dt:dt=""int"">0</Timestamp><DateUtc dt:dt=""string"">2020-01-04T08:58:45Z</DateUtc></StartTime><FrequencyChanges><FrequencyChange><Frequency dt:dt=""r8"">3507548</Frequency><Timestamp dt:dt=""r8"">252209851550</Timestamp><Current dt:dt=""r8"">0</Current><DateUtc dt:dt=""string"">2020-01-04T08:58:45Z</DateUtc></FrequencyChange></FrequencyChanges></Clock>\n",SVO-06-1,60.023,1.0.0.5,1,black,black,black,black,black,black,black,black,black,-1192539381,2.0.10.182,01-04-2020,2020/1/4 8:58,16:58:46,2.0.10.92,2,,,,,,2,1,2,2,15,19,24,28,33,37,41,46,50,,ProcTrial,,black,black,black,black,black,black,black,black,cyan,-2714,ListSess,0,,-999999,66,33520,9,6214,39734,,,2,1,85,87,89,91,93,94,96,98,100,
SVO,6,1,"<?xml version=""1.0""?>\n<Clock xmlns:dt=""urn:schemas-microsoft-com:datatypes""><Description dt:dt=""string"">E-Prime Primary Realtime Clock</Description><StartTime><Timestamp dt:dt=""int"">0</Timestamp><DateUtc dt:dt=""string"">2020-01-04T08:58:45Z</DateUtc></StartTime><FrequencyChanges><FrequencyChange><Frequency dt:dt=""r8"">3507548</Frequency><Timestamp dt:dt=""r8"">252209851550</Timestamp><Current dt:dt=""r8"">0</Current><DateUtc dt:dt=""string"">2020-01-04T08:58:45Z</DateUtc></FrequencyChange></FrequencyChanges></Clock>\n",SVO-06-1,60.023,1.0.0.5,1,black,black,black,black,black,black,black,black,black,-1192539381,2.0.10.182,01-04-2020,2020/1/4 8:58,16:58:46,2.0.10.92,3,,,,,,3,1,2,3,100,98,96,94,93,91,89,87,85,,ProcTrial,,black,black,black,black,black,black,black,black,cyan,-479,ListSess,0,,-999999,67,41451,9,3979,45430,,,3,1,50,54,59,63,68,72,76,81,85,
SVO,6,1,"<?xml version=""1.0""?>\n<Clock xmlns:dt=""urn:schemas-microsoft-com:datatypes""><Description dt:dt=""string"">E-Prime Primary Realtime Clock</Description><StartTime><Timestamp dt:dt=""int"">0</Timestamp><DateUtc dt:dt=""string"">2020-01-04T08:58:45Z</DateUtc></StartTime><FrequencyChanges><FrequencyChange><Frequency dt:dt=""r8"">3507548</Frequency><Timestamp dt:dt=""r8"">252209851550</Timestamp><Current dt:dt=""r8"">0</Current><DateUtc dt:dt=""string"">2020-01-04T08:58:45Z</DateUtc></FrequencyChange></FrequencyChanges></Clock>\n",SVO-06-1,60.023,1.0.0.5,1,black,black,black,black,black,black,black,black,black,-1192539381,2.0.10.182,01-04-2020,2020/1/4 8:58,16:58:46,2.0.10.92,4,,,,,,4,1,2,4,100,89,79,68,58,47,36,26,15,,ProcTrial,black,black,black,black,black,black,cyan,black,black,black,2278,ListSess,0,,-999999,82,71872,6,1222,73094,,,4,1,50,54,59,63,68,72,76,81,85,
SVO,6,1,"<?xml version=""1.0""?>\n<Clock xmlns:dt=""urn:schemas-microsoft-com:datatypes""><Description dt:dt=""string"">E-Prime Primary Realtime Clock</Description><StartTime><Timestamp dt:dt=""int"">0</Timestamp><DateUtc dt:dt=""string"">2020-01-04T08:58:45Z</DateUtc></StartTime><FrequencyChanges><FrequencyChange><Frequency dt:dt=""r8"">3507548</Frequency><Timestamp dt:dt=""r8"">252209851550</Timestamp><Current dt:dt=""r8"">0</Current><DateUtc dt:dt=""string"">2020-01-04T08:58:45Z</DateUtc></FrequencyChange></FrequencyChanges></Clock>\n",SVO-06-1,60.023,1.0.0.5,1,black,black,black,black,black,black,black,black,black,-1192539381,2.0.10.182,01-04-2020,2020/1/4 8:58,16:58:46,2.0.10.92,5,,,,,,5,1,2,5,50,56,63,69,75,81,88,94,100,,ProcTrial,,black,black,black,cyan,black,black,black,black,black,-4735,ListSess,0,,-999999,66,74371,4,8235,82606,,,5,1,100,94,88,81,75,69,63,56,50,
SVO,6,1,"<?xml version=""1.0""?>\n<Clock xmlns:dt=""urn:schemas-microsoft-com:datatypes""><Description dt:dt=""string"">E-Prime Primary Realtime Clock</Description><StartTime><Timestamp dt:dt=""int"">0</Timestamp><DateUtc dt:dt=""string"">2020-01-04T08:58:45Z</DateUtc></StartTime><FrequencyChanges><FrequencyChange><Frequency dt:dt=""r8"">3507548</Frequency><Timestamp dt:dt=""r8"">252209851550</Timestamp><Current dt:dt=""r8"">0</Current><DateUtc dt:dt=""string"">2020-01-04T08:58:45Z</DateUtc></FrequencyChange></FrequencyChanges></Clock>\n",SVO-06-1,60.023,1.0.0.5,1,black,black,black,black,black,black,black,black,black,-1192539381,2.0.10.182,01-04-2020,2020/1/4 8:58,16:58:46,2.0.10.92,6,,,,,,6,1,2,6,50,54,59,63,68,72,76,81,85,,ProcTrial,,black,black,black,black,black,cyan,black,black,black,-8598,ListSess,0,,-999999,67,84268,6,12098,96366,,,6,1,100,98,96,94,93,91,89,87,85,
SVO,6,1,"<?xml version=""1.0""?>\n<Clock xmlns:dt=""urn:schemas-microsoft-com:datatypes""><Description dt:dt=""string"">E-Prime Primary Realtime Clock</Description><StartTime><Timestamp dt:dt=""int"">0</Timestamp><DateUtc dt:dt=""string"">2020-01-04T08:58:45Z</DateUtc></StartTime><FrequencyChanges><FrequencyChange><Frequency dt:dt=""r8"">3507548</Frequency><Timestamp dt:dt=""r8"">252209851550</Timestamp><Current dt:dt=""r8"">0</Current><DateUtc dt:dt=""string"">2020-01-04T08:58:45Z</DateUtc></FrequencyChange></FrequencyChanges></Clock>\n",SVO-06-1,60.023,1.0.0.5,1,black,black,black,black,black,black,black,black,black,-1192539381,2.0.10.182,01-04-2020,2020/1/4 8:58,16:58:46,2.0.10.92,7,,,,,,7,1,2,7,50,56,63,69,75,81,88,94,100,,ProcTrial,,black,black,black,cyan,black,black,black,black,black,-9156,ListSess,0,,-999999,67,98029,4,12656,110685,,,7,2,100,96,93,89,85,81,78,74,70,
SVO,6,1,"<?xml version=""1.0""?>\n<Clock xmlns:dt=""urn:schemas-microsoft-com:datatypes""><Description dt:dt=""string"">E-Prime Primary Realtime Clock</Description><StartTime><Timestamp dt:dt=""int"">0</Timestamp><DateUtc dt:dt=""string"">2020-01-04T08:58:45Z</DateUtc></StartTime><FrequencyChanges><FrequencyChange><Frequency dt:dt=""r8"">3507548</Frequency><Timestamp dt:dt=""r8"">252209851550</Timestamp><Current dt:dt=""r8"">0</Current><DateUtc dt:dt=""string"">2020-01-04T08:58:45Z</DateUtc></FrequencyChange></FrequencyChanges></Clock>\n",SVO-06-1,60.023,1.0.0.5,1,black,black,black,black,black,black,black,black,black,-1192539381,2.0.10.182,01-04-2020,2020/1/4 8:58,16:58:46,2.0.10.92,8,,,,,,8,1,2,8,100,99,98,96,95,94,93,91,90,,ProcTrial,,black,black,black,black,black,black,black,black,cyan,-986,ListSess,0,,-999999,66,112007,9,4486,116493,,,8,2,90,91,93,94,95,96,98,99,100,
SVO,6,1,"<?xml version=""1.0""?>\n<Clock xmlns:dt=""urn:schemas-microsoft-com:datatypes""><Description dt:dt=""string"">E-Prime Primary Realtime Clock</Description><StartTime><Timestamp dt:dt=""int"">0</Timestamp><DateUtc dt:dt=""string"">2020-01-04T08:58:45Z</DateUtc></StartTime><FrequencyChanges><FrequencyChange><Frequency dt:dt=""r8"">3507548</Frequency><Timestamp dt:dt=""r8"">252209851550</Timestamp><Current dt:dt=""r8"">0</Current><DateUtc dt:dt=""string"">2020-01-04T08:58:45Z</DateUtc></FrequencyChange></FrequencyChanges></Clock>\n",SVO-06-1,60.023,1.0.0.5,1,black,black,black,black,black,black,black,black,black,-1192539381,2.0.10.182,01-04-2020,2020/1/4 8:58,16:58:46,2.0.10.92,9,,,,,,9,1,2,9,70,74,78,81,85,89,93,96,100,,ProcTrial,,black,cyan,black,black,black,black,black,black,black,-11479,ListSess,0,,-999999,66,117538,2,14979,132517,,,9,2,100,94,88,81,75,69,63,56,50,
SVO,6,1,"<?xml version=""1.0""?>\n<Clock xmlns:dt=""urn:schemas-microsoft-com:datatypes""><Description dt:dt=""string"">E-Prime Primary Realtime Clock</Description><StartTime><Timestamp dt:dt=""int"">0</Timestamp><DateUtc dt:dt=""string"">2020-01-04T08:58:45Z</DateUtc></StartTime><FrequencyChanges><FrequencyChange><Frequency dt:dt=""r8"">3507548</Frequency><Timestamp dt:dt=""r8"">252209851550</Timestamp><Current dt:dt=""r8"">0</Current><DateUtc dt:dt=""string"">2020-01-04T08:58:45Z</DateUtc></FrequencyChange></FrequencyChanges></Clock>\n",SVO-06-1,60.023,1.0.0.5,1,black,black,black,black,black,black,black,black,black,-1192539381,2.0.10.182,01-04-2020,2020/1/4 8:58,16:58:46,2.0.10.92,10,,,,,,10,1,2,10,70,74,78,81,85,89,93,96,100,,ProcTrial,,black,black,black,black,black,cyan,black,black,black,-11578,ListSess,0,,-999999,66,134831,6,15078,149909,,,10,2,100,99,98,96,95,94,93,91,90,
SVO,6,1,"<?xml version=""1.0""?>\n<Clock xmlns:dt=""urn:schemas-microsoft-com:datatypes""><Description dt:dt=""string"">E-Prime Primary Realtime Clock</Description><StartTime><Timestamp dt:dt=""int"">0</Timestamp><DateUtc dt:dt=""string"">2020-01-04T08:58:45Z</DateUtc></StartTime><FrequencyChanges><FrequencyChange><Frequency dt:dt=""r8"">3507548</Frequency><Timestamp dt:dt=""r8"">252209851550</Timestamp><Current dt:dt=""r8"">0</Current><DateUtc dt:dt=""string"">2020-01-04T08:58:45Z</DateUtc></FrequencyChange></FrequencyChanges></Clock>\n",SVO-06-1,60.023,1.0.0.5,1,black,black,black,black,black,black,black,black,black,-1192539381,2.0.10.182,01-04-2020,2020/1/4 8:58,16:58:46,2.0.10.92,11,,,,,,11,1,2,11,100,96,93,89,85,81,78,74,70,,ProcTrial,,black,black,black,black,black,cyan,black,black,black,-2436,ListSess,0,,-999999,66,150925,6,5936,156861,,,11,2,70,74,78,81,85,89,93,96,100,
SVO,6,1,"<?xml version=""1.0""?>\n<Clock xmlns:dt=""urn:schemas-microsoft-com:datatypes""><Description dt:dt=""string"">E-Prime Primary Realtime Clock</Description><StartTime><Timestamp dt:dt=""int"">0</Timestamp><DateUtc dt:dt=""string"">2020-01-04T08:58:45Z</DateUtc></StartTime><FrequencyChanges><FrequencyChange><Frequency dt:dt=""r8"">3507548</Frequency><Timestamp dt:dt=""r8"">252209851550</Timestamp><Current dt:dt=""r8"">0</Current><DateUtc dt:dt=""string"">2020-01-04T08:58:45Z</DateUtc></FrequencyChange></FrequencyChanges></Clock>\n",SVO-06-1,60.023,1.0.0.5,1,black,black,black,black,black,black,black,black,black,-1192539381,2.0.10.182,01-04-2020,2020/1/4 8:58,16:58:46,2.0.10.92,12,,,,,,12,1,2,12,100,99,98,96,95,94,93,91,90,,ProcTrial,,black,black,black,black,black,black,black,cyan,black,-7206,ListSess,0,,-999999,67,157923,8,10706,168629,,,12,2,50,56,63,69,75,81,88,94,100,
SVO,6,1,"<?xml version=""1.0""?>\n<Clock xmlns:dt=""urn:schemas-microsoft-com:datatypes""><Description dt:dt=""string"">E-Prime Primary Realtime Clock</Description><StartTime><Timestamp dt:dt=""int"">0</Timestamp><DateUtc dt:dt=""string"">2020-01-04T08:58:45Z</DateUtc></StartTime><FrequencyChanges><FrequencyChange><Frequency dt:dt=""r8"">3507548</Frequency><Timestamp dt:dt=""r8"">252209851550</Timestamp><Current dt:dt=""r8"">0</Current><DateUtc dt:dt=""string"">2020-01-04T08:58:45Z</DateUtc></FrequencyChange></FrequencyChanges></Clock>\n",SVO-06-1,60.023,1.0.0.5,1,black,black,black,black,black,black,black,black,black,-1192539381,2.0.10.182,01-04-2020,2020/1/4 8:58,16:58:46,2.0.10.92,13,,,,,,13,1,2,13,100,94,88,81,75,69,63,56,50,,ProcTrial,,black,black,black,black,black,cyan,black,black,black,-4249,ListSess,0,,-999999,66,169568,6,7749,177317,,,13,2,50,56,63,69,75,81,88,94,100,
SVO,6,1,"<?xml version=""1.0""?>\n<Clock xmlns:dt=""urn:schemas-microsoft-com:datatypes""><Description dt:dt=""string"">E-Prime Primary Realtime Clock</Description><StartTime><Timestamp dt:dt=""int"">0</Timestamp><DateUtc dt:dt=""string"">2020-01-04T08:58:45Z</DateUtc></StartTime><FrequencyChanges><FrequencyChange><Frequency dt:dt=""r8"">3507548</Frequency><Timestamp dt:dt=""r8"">252209851550</Timestamp><Current dt:dt=""r8"">0</Current><DateUtc dt:dt=""string"">2020-01-04T08:58:45Z</DateUtc></FrequencyChange></FrequencyChanges></Clock>\n",SVO-06-1,60.023,1.0.0.5,1,black,black,black,black,black,black,black,black,black,-1192539381,2.0.10.182,01-04-2020,2020/1/4 8:58,16:58:46,2.0.10.92,14,,,,,,14,1,2,14,90,91,93,94,95,96,98,99,100,,ProcTrial,,black,cyan,black,black,black,black,black,black,black,-5114,ListSess,0,,-999999,66,178431,2,8614,187045,,,14,2,100,96,93,89,85,81,78,74,70,
SVO,6,1,"<?xml version=""1.0""?>\n<Clock xmlns:dt=""urn:schemas-microsoft-com:datatypes""><Description dt:dt=""string"">E-Prime Primary Realtime Clock</Description><StartTime><Timestamp dt:dt=""int"">0</Timestamp><DateUtc dt:dt=""string"">2020-01-04T08:58:45Z</DateUtc></StartTime><FrequencyChanges><FrequencyChange><Frequency dt:dt=""r8"">3507548</Frequency><Timestamp dt:dt=""r8"">252209851550</Timestamp><Current dt:dt=""r8"">0</Current><DateUtc dt:dt=""string"">2020-01-04T08:58:45Z</DateUtc></FrequencyChange></FrequencyChanges></Clock>\n",SVO-06-1,60.023,1.0.0.5,1,black,black,black,black,black,black,black,black,black,-1192539381,2.0.10.182,01-04-2020,2020/1/4 8:58,16:58:46,2.0.10.92,15,0.6805556,0.1805556,0.3194444,0.2708333,0.4,15,1,2,15,100,94,88,81,75,69,63,56,50,68,ProcTrial,,black,black,cyan,black,black,black,black,black,black,-8278,ListSess,0,,-999999,49,187994,3,11778,199772,0.5046729,2,15,2,90,91,93,94,95,96,98,99,100,85.66666
SVO,7,1,"<?xml version=""1.0""?>\n<Clock xmlns:dt=""urn:schemas-microsoft-com:datatypes""><Description dt:dt=""string"">E-Prime Primary Realtime Clock</Description><StartTime><Timestamp dt:dt=""int"">0</Timestamp><DateUtc dt:dt=""string"">2020-01-04T09:08:00Z</DateUtc></StartTime><FrequencyChanges><FrequencyChange><Frequency dt:dt=""r8"">3215253</Frequency><Timestamp dt:dt=""r8"">228911727408</Timestamp><Current dt:dt=""r8"">0</Current><DateUtc dt:dt=""string"">2020-01-04T09:08:00Z</DateUtc></FrequencyChange></FrequencyChanges></Clock>\n",SVO-07-1,60.004,1.0.0.2,1,black,black,black,black,black,black,black,black,black,1279092141,2.0.10.182,01-04-2020,2020/1/4 9:08,17:08:00,2.0.10.92,1,,,,,,1,1,2,1,85,76,68,59,50,41,33,24,15,,ProcTrial,,cyan,black,black,black,black,black,black,black,black,83,ListSess,0,,-999999,134,10332,1,3417,13749,,,1,1,85,85,85,85,85,85,85,85,85,
SVO,7,1,"<?xml version=""1.0""?>\n<Clock xmlns:dt=""urn:schemas-microsoft-com:datatypes""><Description dt:dt=""string"">E-Prime Primary Realtime Clock</Description><StartTime><Timestamp dt:dt=""int"">0</Timestamp><DateUtc dt:dt=""string"">2020-01-04T09:08:00Z</DateUtc></StartTime><FrequencyChanges><FrequencyChange><Frequency dt:dt=""r8"">3215253</Frequency><Timestamp dt:dt=""r8"">228911727408</Timestamp><Current dt:dt=""r8"">0</Current><DateUtc dt:dt=""string"">2020-01-04T09:08:00Z</DateUtc></FrequencyChange></FrequencyChanges></Clock>\n",SVO-07-1,60.004,1.0.0.2,1,black,black,black,black,black,black,black,black,black,1279092141,2.0.10.182,01-04-2020,2020/1/4 9:08,17:08:00,2.0.10.92,2,,,,,,2,1,2,2,15,19,24,28,33,37,41,46,50,,ProcTrial,,black,black,black,black,black,black,black,black,cyan,-177,ListSess,0,,-999999,100,15248,9,3677,18925,,,2,1,85,87,89,91,93,94,96,98,100,
SVO,7,1,"<?xml version=""1.0""?>\n<Clock xmlns:dt=""urn:schemas-microsoft-com:datatypes""><Description dt:dt=""string"">E-Prime Primary Realtime Clock</Description><StartTime><Timestamp dt:dt=""int"">0</Timestamp><DateUtc dt:dt=""string"">2020-01-04T09:08:00Z</DateUtc></StartTime><FrequencyChanges><FrequencyChange><Frequency dt:dt=""r8"">3215253</Frequency><Timestamp dt:dt=""r8"">228911727408</Timestamp><Current dt:dt=""r8"">0</Current><DateUtc dt:dt=""string"">2020-01-04T09:08:00Z</DateUtc></FrequencyChange></FrequencyChanges></Clock>\n",SVO-07-1,60.004,1.0.0.2,1,black,black,black,black,black,black,black,black,black,1279092141,2.0.10.182,01-04-2020,2020/1/4 9:08,17:08:00,2.0.10.92,3,,,,,,3,1,2,3,100,98,96,94,93,91,89,87,85,,ProcTrial,,black,black,black,black,black,black,black,black,cyan,481,ListSess,0,,-999999,117,20098,9,3019,23117,,,3,1,50,54,59,63,68,72,76,81,85,
SVO,7,1,"<?xml version=""1.0""?>\n<Clock xmlns:dt=""urn:schemas-microsoft-com:datatypes""><Description dt:dt=""string"">E-Prime Primary Realtime Clock</Description><StartTime><Timestamp dt:dt=""int"">0</Timestamp><DateUtc dt:dt=""string"">2020-01-04T09:08:00Z</DateUtc></StartTime><FrequencyChanges><FrequencyChange><Frequency dt:dt=""r8"">3215253</Frequency><Timestamp dt:dt=""r8"">228911727408</Timestamp><Current dt:dt=""r8"">0</Current><DateUtc dt:dt=""string"">2020-01-04T09:08:00Z</DateUtc></FrequencyChange></FrequencyChanges></Clock>\n",SVO-07-1,60.004,1.0.0.2,1,black,black,black,black,black,black,black,black,black,1279092141,2.0.10.182,01-04-2020,2020/1/4 9:08,17:08:00,2.0.10.92,4,,,,,,4,1,2,4,100,89,79,68,58,47,36,26,15,,ProcTrial,,black,black,black,black,cyan,black,black,black,black,-1685,ListSess,0,,-999999,117,24164,5,5185,29349,,,4,1,50,54,59,63,68,72,76,81,85,
SVO,7,1,"<?xml version=""1.0""?>\n<Clock xmlns:dt=""urn:schemas-microsoft-com:datatypes""><Description dt:dt=""string"">E-Prime Primary Realtime Clock</Description><StartTime><Timestamp dt:dt=""int"">0</Timestamp><DateUtc dt:dt=""string"">2020-01-04T09:08:00Z</DateUtc></StartTime><FrequencyChanges><FrequencyChange><Frequency dt:dt=""r8"">3215253</Frequency><Timestamp dt:dt=""r8"">228911727408</Timestamp><Current dt:dt=""r8"">0</Current><DateUtc dt:dt=""string"">2020-01-04T09:08:00Z</DateUtc></FrequencyChange></FrequencyChanges></Clock>\n",SVO-07-1,60.004,1.0.0.2,1,black,black,black,black,black,black,black,black,black,1279092141,2.0.10.182,01-04-2020,2020/1/4 9:08,17:08:00,2.0.10.92,5,,,,,,5,1,2,5,50,56,63,69,75,81,88,94,100,,ProcTrial,,black,black,black,black,cyan,black,black,black,black,-1401,ListSess,0,,-999999,116,30480,5,4901,35381,,,5,1,100,94,88,81,75,69,63,56,50,
SVO,7,1,"<?xml version=""1.0""?>\n<Clock xmlns:dt=""urn:schemas-microsoft-com:datatypes""><Description dt:dt=""string"">E-Prime Primary Realtime Clock</Description><StartTime><Timestamp dt:dt=""int"">0</Timestamp><DateUtc dt:dt=""string"">2020-01-04T09:08:00Z</DateUtc></StartTime><FrequencyChanges><FrequencyChange><Frequency dt:dt=""r8"">3215253</Frequency><Timestamp dt:dt=""r8"">228911727408</Timestamp><Current dt:dt=""r8"">0</Current><DateUtc dt:dt=""string"">2020-01-04T09:08:00Z</DateUtc></FrequencyChange></FrequencyChanges></Clock>\n",SVO-07-1,60.004,1.0.0.2,1,black,black,black,black,black,black,black,black,black,1279092141,2.0.10.182,01-04-2020,2020/1/4 9:08,17:08:00,2.0.10.92,6,,,,,,6,1,2,6,50,54,59,63,68,72,76,81,85,,ProcTrial,,black,black,black,black,black,black,black,black,cyan,-1066,ListSess,0,,-999999,101,36447,9,4566,41013,,,6,1,100,98,96,94,93,91,89,87,85,
SVO,7,1,"<?xml version=""1.0""?>\n<Clock xmlns:dt=""urn:schemas-microsoft-com:datatypes""><Description dt:dt=""string"">E-Prime Primary Realtime Clock</Description><StartTime><Timestamp dt:dt=""int"">0</Timestamp><DateUtc dt:dt=""string"">2020-01-04T09:08:00Z</DateUtc></StartTime><FrequencyChanges><FrequencyChange><Frequency dt:dt=""r8"">3215253</Frequency><Timestamp dt:dt=""r8"">228911727408</Timestamp><Current dt:dt=""r8"">0</Current><DateUtc dt:dt=""string"">2020-01-04T09:08:00Z</DateUtc></FrequencyChange></FrequencyChanges></Clock>\n",SVO-07-1,60.004,1.0.0.2,1,black,black,black,black,black,black,black,black,black,1279092141,2.0.10.182,01-04-2020,2020/1/4 9:08,17:08:00,2.0.10.92,7,,,,,,7,1,2,7,50,56,63,69,75,81,88,94,100,,ProcTrial,,black,black,black,black,black,black,cyan,black,black,-3810,ListSess,0,,-999999,117,42063,7,7310,49373,,,7,2,100,96,93,89,85,81,78,74,70,
SVO,7,1,"<?xml version=""1.0""?>\n<Clock xmlns:dt=""urn:schemas-microsoft-com:datatypes""><Description dt:dt=""string"">E-Prime Primary Realtime Clock</Description><StartTime><Timestamp dt:dt=""int"">0</Timestamp><DateUtc dt:dt=""string"">2020-01-04T09:08:00Z</DateUtc></StartTime><FrequencyChanges><FrequencyChange><Frequency dt:dt=""r8"">3215253</Frequency><Timestamp dt:dt=""r8"">228911727408</Timestamp><Current dt:dt=""r8"">0</Current><DateUtc dt:dt=""string"">2020-01-04T09:08:00Z</DateUtc></FrequencyChange></FrequencyChanges></Clock>\n",SVO-07-1,60.004,1.0.0.2,1,black,black,black,black,black,black,black,black,black,1279092141,2.0.10.182,01-04-2020,2020/1/4 9:08,17:08:00,2.0.10.92,8,,,,,,8,1,2,8,100,99,98,96,95,94,93,91,90,,ProcTrial,,black,black,black,black,black,black,black,black,cyan,1202,ListSess,0,,-999999,117,50379,9,2298,52677,,,8,2,90,91,93,94,95,96,98,99,100,
SVO,7,1,"<?xml version=""1.0""?>\n<Clock xmlns:dt=""urn:schemas-microsoft-com:datatypes""><Description dt:dt=""string"">E-Prime Primary Realtime Clock</Description><StartTime><Timestamp dt:dt=""int"">0</Timestamp><DateUtc dt:dt=""string"">2020-01-04T09:08:00Z</DateUtc></StartTime><FrequencyChanges><FrequencyChange><Frequency dt:dt=""r8"">3215253</Frequency><Timestamp dt:dt=""r8"">228911727408</Timestamp><Current dt:dt=""r8"">0</Current><DateUtc dt:dt=""string"">2020-01-04T09:08:00Z</DateUtc></FrequencyChange></FrequencyChanges></Clock>\n",SVO-07-1,60.004,1.0.0.2,1,black,black,black,black,black,black,black,black,black,1279092141,2.0.10.182,01-04-2020,2020/1/4 9:08,17:08:00,2.0.10.92,9,,,,,,9,1,2,9,70,74,78,81,85,89,93,96,100,,ProcTrial,,black,black,black,cyan,black,black,black,black,black,-1072,ListSess,0,,-999999,117,53729,4,4572,58301,,,9,2,100,94,88,81,75,69,63,56,50,
SVO,7,1,"<?xml version=""1.0""?>\n<Clock xmlns:dt=""urn:schemas-microsoft-com:datatypes""><Description dt:dt=""string"">E-Prime Primary Realtime Clock</Description><StartTime><Timestamp dt:dt=""int"">0</Timestamp><DateUtc dt:dt=""string"">2020-01-04T09:08:00Z</DateUtc></StartTime><FrequencyChanges><FrequencyChange><Frequency dt:dt=""r8"">3215253</Frequency><Timestamp dt:dt=""r8"">228911727408</Timestamp><Current dt:dt=""r8"">0</Current><DateUtc dt:dt=""string"">2020-01-04T09:08:00Z</DateUtc></FrequencyChange></FrequencyChanges></Clock>\n",SVO-07-1,60.004,1.0.0.2,1,black,black,black,black,black,black,black,black,black,1279092141,2.0.10.182,01-04-2020,2020/1/4 9:08,17:08:00,2.0.10.92,10,,,,,,10,1,2,10,70,74,78,81,85,89,93,96,100,,ProcTrial,,black,black,black,black,black,black,black,black,cyan,31,ListSess,0,,-999999,117,59312,9,3469,62781,,,10,2,100,99,98,96,95,94,93,91,90,
SVO,7,1,"<?xml version=""1.0""?>\n<Clock xmlns:dt=""urn:schemas-microsoft-com:datatypes""><Description dt:dt=""string"">E-Prime Primary Realtime Clock</Description><StartTime><Timestamp dt:dt=""int"">0</Timestamp><DateUtc dt:dt=""string"">2020-01-04T09:08:00Z</DateUtc></StartTime><FrequencyChanges><FrequencyChange><Frequency dt:dt=""r8"">3215253</Frequency><Timestamp dt:dt=""r8"">228911727408</Timestamp><Current dt:dt=""r8"">0</Current><DateUtc dt:dt=""string"">2020-01-04T09:08:00Z</DateUtc></FrequencyChange></FrequencyChanges></Clock>\n",SVO-07-1,60.004,1.0.0.2,1,black,black,black,black,black,black,black,black,black,1279092141,2.0.10.182,01-04-2020,2020/1/4 9:08,17:08:00,2.0.10.92,11,,,,,,11,1,2,11,100,96,93,89,85,81,78,74,70,,ProcTrial,,black,black,black,black,cyan,black,black,black,black,-4421,ListSess,0,,-999999,117,63828,5,7921,71749,,,11,2,70,74,78,81,85,89,93,96,100,
SVO,7,1,"<?xml version=""1.0""?>\n<Clock xmlns:dt=""urn:schemas-microsoft-com:datatypes""><Description dt:dt=""string"">E-Prime Primary Realtime Clock</Description><StartTime><Timestamp dt:dt=""int"">0</Timestamp><DateUtc dt:dt=""string"">2020-01-04T09:08:00Z</DateUtc></StartTime><FrequencyChanges><FrequencyChange><Frequency dt:dt=""r8"">3215253</Frequency><Timestamp dt:dt=""r8"">228911727408</Timestamp><Current dt:dt=""r8"">0</Current><DateUtc dt:dt=""string"">2020-01-04T09:08:00Z</DateUtc></FrequencyChange></FrequencyChanges></Clock>\n",SVO-07-1,60.004,1.0.0.2,1,black,black,black,black,black,black,black,black,black,1279092141,2.0.10.182,01-04-2020,2020/1/4 9:08,17:08:00,2.0.10.92,12,,,,,,12,1,2,12,100,99,98,96,95,94,93,91,90,,ProcTrial,,black,black,black,black,black,black,black,black,cyan,1170,ListSess,0,,-999999,117,73011,9,2330,75341,,,12,2,50,56,63,69,75,81,88,94,100,
SVO,7,1,"<?xml version=""1.0""?>\n<Clock xmlns:dt=""urn:schemas-microsoft-com:datatypes""><Description dt:dt=""string"">E-Prime Primary Realtime Clock</Description><StartTime><Timestamp dt:dt=""int"">0</Timestamp><DateUtc dt:dt=""string"">2020-01-04T09:08:00Z</DateUtc></StartTime><FrequencyChanges><FrequencyChange><Frequency dt:dt=""r8"">3215253</Frequency><Timestamp dt:dt=""r8"">228911727408</Timestamp><Current dt:dt=""r8"">0</Current><DateUtc dt:dt=""string"">2020-01-04T09:08:00Z</DateUtc></FrequencyChange></FrequencyChanges></Clock>\n",SVO-07-1,60.004,1.0.0.2,1,black,black,black,black,black,black,black,black,black,1279092141,2.0.10.182,01-04-2020,2020/1/4 9:08,17:08:00,2.0.10.92,13,,,,,,13,1,2,13,100,94,88,81,75,69,63,56,50,,ProcTrial,,black,black,black,black,cyan,black,black,black,black,-3021,ListSess,0,,-999999,100,76260,5,6521,82781,,,13,2,50,56,63,69,75,81,88,94,100,
SVO,7,1,"<?xml version=""1.0""?>\n<Clock xmlns:dt=""urn:schemas-microsoft-com:datatypes""><Description dt:dt=""string"">E-Prime Primary Realtime Clock</Description><StartTime><Timestamp dt:dt=""int"">0</Timestamp><DateUtc dt:dt=""string"">2020-01-04T09:08:00Z</DateUtc></StartTime><FrequencyChanges><FrequencyChange><Frequency dt:dt=""r8"">3215253</Frequency><Timestamp dt:dt=""r8"">228911727408</Timestamp><Current dt:dt=""r8"">0</Current><DateUtc dt:dt=""string"">2020-01-04T09:08:00Z</DateUtc></FrequencyChange></FrequencyChanges></Clock>\n",SVO-07-1,60.004,1.0.0.2,1,black,black,black,black,black,black,black,black,black,1279092141,2.0.10.182,01-04-2020,2020/1/4 9:08,17:08:00,2.0.10.92,14,,,,,,14,1,2,14,90,91,93,94,95,96,98,99,100,,ProcTrial,,cyan,black,black,black,black,black,black,black,black,884,ListSess,0,,-999999,116,83693,1,2616,86309,,,14,2,100,96,93,89,85,81,78,74,70,
SVO,7,1,"<?xml version=""1.0""?>\n<Clock xmlns:dt=""urn:schemas-microsoft-com:datatypes""><Description dt:dt=""string"">E-Prime Primary Realtime Clock</Description><StartTime><Timestamp dt:dt=""int"">0</Timestamp><DateUtc dt:dt=""string"">2020-01-04T09:08:00Z</DateUtc></StartTime><FrequencyChanges><FrequencyChange><Frequency dt:dt=""r8"">3215253</Frequency><Timestamp dt:dt=""r8"">228911727408</Timestamp><Current dt:dt=""r8"">0</Current><DateUtc dt:dt=""string"">2020-01-04T09:08:00Z</DateUtc></FrequencyChange></FrequencyChanges></Clock>\n",SVO-07-1,60.004,1.0.0.2,1,black,black,black,black,black,black,black,black,black,1279092141,2.0.10.182,01-04-2020,2020/1/4 9:08,17:08:00,2.0.10.92,15,0.5416667,0.1527778,0.4583333,0.1041667,0.5945946,15,1,2,15,100,94,88,81,75,69,63,56,50,73,ProcTrial,,cyan,black,black,black,black,black,black,black,black,1732,ListSess,0,,-999999,117,87293,1,1768,89061,0.6969697,2,15,2,90,91,93,94,95,96,98,99,100,83
SVO,8,1,"<?xml version=""1.0""?>\n<Clock xmlns:dt=""urn:schemas-microsoft-com:datatypes""><Description dt:dt=""string"">E-Prime Primary Realtime Clock</Description><StartTime><Timestamp dt:dt=""int"">0</Timestamp><DateUtc dt:dt=""string"">2020-01-04T10:13:33Z</DateUtc></StartTime><FrequencyChanges><FrequencyChange><Frequency dt:dt=""r8"">3215253</Frequency><Timestamp dt:dt=""r8"">241559229375</Timestamp><Current dt:dt=""r8"">0</Current><DateUtc dt:dt=""string"">2020-01-04T10:13:33Z</DateUtc></FrequencyChange></FrequencyChanges></Clock>\n",SVO-08-1,60.004,1.0.0.3,1,black,black,black,black,black,black,black,black,black,1041688017,2.0.10.182,01-04-2020,2020/1/4 10:13,18:13:34,2.0.10.92,1,,,,,,1,1,2,1,85,76,68,59,50,41,33,24,15,,ProcTrial,,cyan,black,black,black,black,black,black,black,black,662,ListSess,0,,-999999,134,9781,1,2838,12619,,,1,1,85,85,85,85,85,85,85,85,85,
SVO,8,1,"<?xml version=""1.0""?>\n<Clock xmlns:dt=""urn:schemas-microsoft-com:datatypes""><Description dt:dt=""string"">E-Prime Primary Realtime Clock</Description><StartTime><Timestamp dt:dt=""int"">0</Timestamp><DateUtc dt:dt=""string"">2020-01-04T10:13:33Z</DateUtc></StartTime><FrequencyChanges><FrequencyChange><Frequency dt:dt=""r8"">3215253</Frequency><Timestamp dt:dt=""r8"">241559229375</Timestamp><Current dt:dt=""r8"">0</Current><DateUtc dt:dt=""string"">2020-01-04T10:13:33Z</DateUtc></FrequencyChange></FrequencyChanges></Clock>\n",SVO-08-1,60.004,1.0.0.3,1,black,black,black,black,black,black,black,black,black,1041688017,2.0.10.182,01-04-2020,2020/1/4 10:13,18:13:34,2.0.10.92,2,,,,,,2,1,2,2,15,19,24,28,33,37,41,46,50,,ProcTrial,,black,black,black,black,black,black,black,black,cyan,-2275,ListSess,0,,-999999,116,14780,9,5775,20555,,,2,1,85,87,89,91,93,94,96,98,100,
SVO,8,1,"<?xml version=""1.0""?>\n<Clock xmlns:dt=""urn:schemas-microsoft-com:datatypes""><Description dt:dt=""string"">E-Prime Primary Realtime Clock</Description><StartTime><Timestamp dt:dt=""int"">0</Timestamp><DateUtc dt:dt=""string"">2020-01-04T10:13:33Z</DateUtc></StartTime><FrequencyChanges><FrequencyChange><Frequency dt:dt=""r8"">3215253</Frequency><Timestamp dt:dt=""r8"">241559229375</Timestamp><Current dt:dt=""r8"">0</Current><DateUtc dt:dt=""string"">2020-01-04T10:13:33Z</DateUtc></FrequencyChange></FrequencyChanges></Clock>\n",SVO-08-1,60.004,1.0.0.3,1,black,black,black,black,black,black,black,black,black,1041688017,2.0.10.182,01-04-2020,2020/1/4 10:13,18:13:34,2.0.10.92,3,,,,,,3,1,2,3,100,98,96,94,93,91,89,87,85,,ProcTrial,,black,black,black,black,black,black,black,black,cyan,-7,ListSess,0,,-999999,100,22079,9,3507,25586,,,3,1,50,54,59,63,68,72,76,81,85,
SVO,8,1,"<?xml version=""1.0""?>\n<Clock xmlns:dt=""urn:schemas-microsoft-com:datatypes""><Description dt:dt=""string"">E-Prime Primary Realtime Clock</Description><StartTime><Timestamp dt:dt=""int"">0</Timestamp><DateUtc dt:dt=""string"">2020-01-04T10:13:33Z</DateUtc></StartTime><FrequencyChanges><FrequencyChange><Frequency dt:dt=""r8"">3215253</Frequency><Timestamp dt:dt=""r8"">241559229375</Timestamp><Current dt:dt=""r8"">0</Current><DateUtc dt:dt=""string"">2020-01-04T10:13:33Z</DateUtc></FrequencyChange></FrequencyChanges></Clock>\n",SVO-08-1,60.004,1.0.0.3,1,black,black,black,black,black,black,black,black,black,1041688017,2.0.10.182,01-04-2020,2020/1/4 10:13,18:13:34,2.0.10.92,4,,,,,,4,1,2,4,100,89,79,68,58,47,36,26,15,,ProcTrial,,black,black,black,black,black,black,black,black,cyan,137,ListSess,0,,-999999,100,27279,9,3363,30642,,,4,1,50,54,59,63,68,72,76,81,85,
SVO,8,1,"<?xml version=""1.0""?>\n<Clock xmlns:dt=""urn:schemas-microsoft-com:datatypes""><Description dt:dt=""string"">E-Prime Primary Realtime Clock</Description><StartTime><Timestamp dt:dt=""int"">0</Timestamp><DateUtc dt:dt=""string"">2020-01-04T10:13:33Z</DateUtc></StartTime><FrequencyChanges><FrequencyChange><Frequency dt:dt=""r8"">3215253</Frequency><Timestamp dt:dt=""r8"">241559229375</Timestamp><Current dt:dt=""r8"">0</Current><DateUtc dt:dt=""string"">2020-01-04T10:13:33Z</DateUtc></FrequencyChange></FrequencyChanges></Clock>\n",SVO-08-1,60.004,1.0.0.3,1,black,black,black,black,black,black,black,black,black,1041688017,2.0.10.182,01-04-2020,2020/1/4 10:13,18:13:34,2.0.10.92,5,,,,,,5,1,2,5,50,56,63,69,75,81,88,94,100,,ProcTrial,,cyan,black,black,black,black,black,black,black,black,-2563,ListSess,0,,-999999,117,31579,1,6063,37642,,,5,1,100,94,88,81,75,69,63,56,50,
SVO,8,1,"<?xml version=""1.0""?>\n<Clock xmlns:dt=""urn:schemas-microsoft-com:datatypes""><Description dt:dt=""string"">E-Prime Primary Realtime Clock</Description><StartTime><Timestamp dt:dt=""int"">0</Timestamp><DateUtc dt:dt=""string"">2020-01-04T10:13:33Z</DateUtc></StartTime><FrequencyChanges><FrequencyChange><Frequency dt:dt=""r8"">3215253</Frequency><Timestamp dt:dt=""r8"">241559229375</Timestamp><Current dt:dt=""r8"">0</Current><DateUtc dt:dt=""string"">2020-01-04T10:13:33Z</DateUtc></FrequencyChange></FrequencyChanges></Clock>\n",SVO-08-1,60.004,1.0.0.3,1,black,black,black,black,black,black,black,black,black,1041688017,2.0.10.182,01-04-2020,2020/1/4 10:13,18:13:34,2.0.10.92,6,,,,,,6,1,2,6,50,54,59,63,68,72,76,81,85,,ProcTrial,,cyan,black,black,black,black,black,black,black,black,2114,ListSess,0,,-999999,116,39128,1,1386,40514,,,6,1,100,98,96,94,93,91,89,87,85,
SVO,8,1,"<?xml version=""1.0""?>\n<Clock xmlns:dt=""urn:schemas-microsoft-com:datatypes""><Description dt:dt=""string"">E-Prime Primary Realtime Clock</Description><StartTime><Timestamp dt:dt=""int"">0</Timestamp><DateUtc dt:dt=""string"">2020-01-04T10:13:33Z</DateUtc></StartTime><FrequencyChanges><FrequencyChange><Frequency dt:dt=""r8"">3215253</Frequency><Timestamp dt:dt=""r8"">241559229375</Timestamp><Current dt:dt=""r8"">0</Current><DateUtc dt:dt=""string"">2020-01-04T10:13:33Z</DateUtc></FrequencyChange></FrequencyChanges></Clock>\n",SVO-08-1,60.004,1.0.0.3,1,black,black,black,black,black,black,black,black,black,1041688017,2.0.10.182,01-04-2020,2020/1/4 10:13,18:13:34,2.0.10.92,7,,,,,,7,1,2,7,50,56,63,69,75,81,88,94,100,,ProcTrial,,cyan,black,black,black,black,black,black,black,black,2726,ListSess,0,,-999999,117,41428,1,774,42202,,,7,2,100,96,93,89,85,81,78,74,70,
SVO,8,1,"<?xml version=""1.0""?>\n<Clock xmlns:dt=""urn:schemas-microsoft-com:datatypes""><Description dt:dt=""string"">E-Prime Primary Realtime Clock</Description><StartTime><Timestamp dt:dt=""int"">0</Timestamp><DateUtc dt:dt=""string"">2020-01-04T10:13:33Z</DateUtc></StartTime><FrequencyChanges><FrequencyChange><Frequency dt:dt=""r8"">3215253</Frequency><Timestamp dt:dt=""r8"">241559229375</Timestamp><Current dt:dt=""r8"">0</Current><DateUtc dt:dt=""string"">2020-01-04T10:13:33Z</DateUtc></FrequencyChange></FrequencyChanges></Clock>\n",SVO-08-1,60.004,1.0.0.3,1,black,black,black,black,black,black,black,black,black,1041688017,2.0.10.182,01-04-2020,2020/1/4 10:13,18:13:34,2.0.10.92,8,,,,,,8,1,2,8,100,99,98,96,95,94,93,91,90,,ProcTrial,,black,black,black,black,black,black,black,black,cyan,569,ListSess,0,,-999999,117,43095,9,2931,46026,,,8,2,90,91,93,94,95,96,98,99,100,
SVO,8,1,"<?xml version=""1.0""?>\n<Clock xmlns:dt=""urn:schemas-microsoft-com:datatypes""><Description dt:dt=""string"">E-Prime Primary Realtime Clock</Description><StartTime><Timestamp dt:dt=""int"">0</Timestamp><DateUtc dt:dt=""string"">2020-01-04T10:13:33Z</DateUtc></StartTime><FrequencyChanges><FrequencyChange><Frequency dt:dt=""r8"">3215253</Frequency><Timestamp dt:dt=""r8"">241559229375</Timestamp><Current dt:dt=""r8"">0</Current><DateUtc dt:dt=""string"">2020-01-04T10:13:33Z</DateUtc></FrequencyChange></FrequencyChanges></Clock>\n",SVO-08-1,60.004,1.0.0.3,1,black,black,black,black,black,black,black,black,black,1041688017,2.0.10.182,01-04-2020,2020/1/4 10:13,18:13:34,2.0.10.92,9,,,,,,9,1,2,9,70,74,78,81,85,89,93,96,100,,ProcTrial,,cyan,black,black,black,black,black,black,black,black,2074,ListSess,0,,-999999,117,46928,1,1426,48354,,,9,2,100,94,88,81,75,69,63,56,50,
SVO,8,1,"<?xml version=""1.0""?>\n<Clock xmlns:dt=""urn:schemas-microsoft-com:datatypes""><Description dt:dt=""string"">E-Prime Primary Realtime Clock</Description><StartTime><Timestamp dt:dt=""int"">0</Timestamp><DateUtc dt:dt=""string"">2020-01-04T10:13:33Z</DateUtc></StartTime><FrequencyChanges><FrequencyChange><Frequency dt:dt=""r8"">3215253</Frequency><Timestamp dt:dt=""r8"">241559229375</Timestamp><Current dt:dt=""r8"">0</Current><DateUtc dt:dt=""string"">2020-01-04T10:13:33Z</DateUtc></FrequencyChange></FrequencyChanges></Clock>\n",SVO-08-1,60.004,1.0.0.3,1,black,black,black,black,black,black,black,black,black,1041688017,2.0.10.182,01-04-2020,2020/1/4 10:13,18:13:34,2.0.10.92,10,,,,,,10,1,2,10,70,74,78,81,85,89,93,96,100,,ProcTrial,,cyan,black,black,black,black,black,black,black,black,2456,ListSess,0,,-999999,100,49294,1,1044,50338,,,10,2,100,99,98,96,95,94,93,91,90,
SVO,8,1,"<?xml version=""1.0""?>\n<Clock xmlns:dt=""urn:schemas-microsoft-com:datatypes""><Description dt:dt=""string"">E-Prime Primary Realtime Clock</Description><StartTime><Timestamp dt:dt=""int"">0</Timestamp><DateUtc dt:dt=""string"">2020-01-04T10:13:33Z</DateUtc></StartTime><FrequencyChanges><FrequencyChange><Frequency dt:dt=""r8"">3215253</Frequency><Timestamp dt:dt=""r8"">241559229375</Timestamp><Current dt:dt=""r8"">0</Current><DateUtc dt:dt=""string"">2020-01-04T10:13:33Z</DateUtc></FrequencyChange></FrequencyChanges></Clock>\n",SVO-08-1,60.004,1.0.0.3,1,black,black,black,black,black,black,black,black,black,1041688017,2.0.10.182,01-04-2020,2020/1/4 10:13,18:13:34,2.0.10.92,11,,,,,,11,1,2,11,100,96,93,89,85,81,78,74,70,,ProcTrial,,black,black,black,black,black,black,black,black,cyan,389,ListSess,0,,-999999,100,52027,9,3111,55138,,,11,2,70,74,78,81,85,89,93,96,100,
SVO,8,1,"<?xml version=""1.0""?>\n<Clock xmlns:dt=""urn:schemas-microsoft-com:datatypes""><Description dt:dt=""string"">E-Prime Primary Realtime Clock</Description><StartTime><Timestamp dt:dt=""int"">0</Timestamp><DateUtc dt:dt=""string"">2020-01-04T10:13:33Z</DateUtc></StartTime><FrequencyChanges><FrequencyChange><Frequency dt:dt=""r8"">3215253</Frequency><Timestamp dt:dt=""r8"">241559229375</Timestamp><Current dt:dt=""r8"">0</Current><DateUtc dt:dt=""string"">2020-01-04T10:13:33Z</DateUtc></FrequencyChange></FrequencyChanges></Clock>\n",SVO-08-1,60.004,1.0.0.3,1,black,black,black,black,black,black,black,black,black,1041688017,2.0.10.182,01-04-2020,2020/1/4 10:13,18:13:34,2.0.10.92,12,,,,,,12,1,2,12,100,99,98,96,95,94,93,91,90,,ProcTrial,,black,black,black,black,black,black,black,black,cyan,2004,ListSess,0,,-999999,100,56010,9,1496,57506,,,12,2,50,56,63,69,75,81,88,94,100,
SVO,8,1,"<?xml version=""1.0""?>\n<Clock xmlns:dt=""urn:schemas-microsoft-com:datatypes""><Description dt:dt=""string"">E-Prime Primary Realtime Clock</Description><StartTime><Timestamp dt:dt=""int"">0</Timestamp><DateUtc dt:dt=""string"">2020-01-04T10:13:33Z</DateUtc></StartTime><FrequencyChanges><FrequencyChange><Frequency dt:dt=""r8"">3215253</Frequency><Timestamp dt:dt=""r8"">241559229375</Timestamp><Current dt:dt=""r8"">0</Current><DateUtc dt:dt=""string"">2020-01-04T10:13:33Z</DateUtc></FrequencyChange></FrequencyChanges></Clock>\n",SVO-08-1,60.004,1.0.0.3,1,black,black,black,black,black,black,black,black,black,1041688017,2.0.10.182,01-04-2020,2020/1/4 10:13,18:13:34,2.0.10.92,13,,,,,,13,1,2,13,100,94,88,81,75,69,63,56,50,,ProcTrial,,black,black,black,black,black,black,black,black,cyan,2812,ListSess,0,,-999999,116,58810,9,688,59498,,,13,2,50,56,63,69,75,81,88,94,100,
SVO,8,1,"<?xml version=""1.0""?>\n<Clock xmlns:dt=""urn:schemas-microsoft-com:datatypes""><Description dt:dt=""string"">E-Prime Primary Realtime Clock</Description><StartTime><Timestamp dt:dt=""int"">0</Timestamp><DateUtc dt:dt=""string"">2020-01-04T10:13:33Z</DateUtc></StartTime><FrequencyChanges><FrequencyChange><Frequency dt:dt=""r8"">3215253</Frequency><Timestamp dt:dt=""r8"">241559229375</Timestamp><Current dt:dt=""r8"">0</Current><DateUtc dt:dt=""string"">2020-01-04T10:13:33Z</DateUtc></FrequencyChange></FrequencyChanges></Clock>\n",SVO-08-1,60.004,1.0.0.3,1,black,black,black,black,black,black,black,black,black,1041688017,2.0.10.182,01-04-2020,2020/1/4 10:13,18:13:34,2.0.10.92,14,,,,,,14,1,2,14,90,91,93,94,95,96,98,99,100,,ProcTrial,,cyan,black,black,black,black,black,black,black,black,2277,ListSess,0,,-999999,117,60427,1,1223,61650,,,14,2,100,96,93,89,85,81,78,74,70,
SVO,8,1,"<?xml version=""1.0""?>\n<Clock xmlns:dt=""urn:schemas-microsoft-com:datatypes""><Description dt:dt=""string"">E-Prime Primary Realtime Clock</Description><StartTime><Timestamp dt:dt=""int"">0</Timestamp><DateUtc dt:dt=""string"">2020-01-04T10:13:33Z</DateUtc></StartTime><FrequencyChanges><FrequencyChange><Frequency dt:dt=""r8"">3215253</Frequency><Timestamp dt:dt=""r8"">241559229375</Timestamp><Current dt:dt=""r8"">0</Current><DateUtc dt:dt=""string"">2020-01-04T10:13:33Z</DateUtc></FrequencyChange></FrequencyChanges></Clock>\n",SVO-08-1,60.004,1.0.0.3,1,black,black,black,black,black,black,black,black,black,1041688017,2.0.10.182,01-04-2020,2020/1/4 10:13,18:13:34,2.0.10.92,15,1,0.5,0,0.5,999,15,1,2,15,100,94,88,81,75,69,63,56,50,55.83333,ProcTrial,,black,black,black,black,black,black,black,black,cyan,2327,ListSess,0,,-999999,100,62693,9,1173,63866,0.1372549,3,15,2,90,91,93,94,95,96,98,99,100,92.5
SVO,9,1,"<?xml version=""1.0""?>\n<Clock xmlns:dt=""urn:schemas-microsoft-com:datatypes""><Description dt:dt=""string"">E-Prime Primary Realtime Clock</Description><StartTime><Timestamp dt:dt=""int"">0</Timestamp><DateUtc dt:dt=""string"">2020-01-05T03:01:06Z</DateUtc></StartTime><FrequencyChanges><FrequencyChange><Frequency dt:dt=""r8"">3215292</Frequency><Timestamp dt:dt=""r8"">174256030453</Timestamp><Current dt:dt=""r8"">0</Current><DateUtc dt:dt=""string"">2020-01-05T03:01:06Z</DateUtc></FrequencyChange></FrequencyChanges></Clock>\n",SVO-09-1,60.005,1.0.0.4,1,black,black,black,black,black,black,black,black,black,-1837022619,2.0.10.182,01-05-2020,2020/1/5 3:01,11:01:06,2.0.10.92,1,,,,,,1,1,2,1,85,76,68,59,50,41,33,24,15,,ProcTrial,,cyan,black,black,black,black,black,black,black,black,-917,ListSess,0,,-999999,133,10499,1,4417,14916,,,1,1,85,85,85,85,85,85,85,85,85,
SVO,9,1,"<?xml version=""1.0""?>\n<Clock xmlns:dt=""urn:schemas-microsoft-com:datatypes""><Description dt:dt=""string"">E-Prime Primary Realtime Clock</Description><StartTime><Timestamp dt:dt=""int"">0</Timestamp><DateUtc dt:dt=""string"">2020-01-05T03:01:06Z</DateUtc></StartTime><FrequencyChanges><FrequencyChange><Frequency dt:dt=""r8"">3215292</Frequency><Timestamp dt:dt=""r8"">174256030453</Timestamp><Current dt:dt=""r8"">0</Current><DateUtc dt:dt=""string"">2020-01-05T03:01:06Z</DateUtc></FrequencyChange></FrequencyChanges></Clock>\n",SVO-09-1,60.005,1.0.0.4,1,black,black,black,black,black,black,black,black,black,-1837022619,2.0.10.182,01-05-2020,2020/1/5 3:01,11:01:06,2.0.10.92,2,,,,,,2,1,2,2,15,19,24,28,33,37,41,46,50,,ProcTrial,,black,black,black,black,black,black,black,black,cyan,523,ListSess,0,,-999999,133,16499,9,2977,19476,,,2,1,85,87,89,91,93,94,96,98,100,
SVO,9,1,"<?xml version=""1.0""?>\n<Clock xmlns:dt=""urn:schemas-microsoft-com:datatypes""><Description dt:dt=""string"">E-Prime Primary Realtime Clock</Description><StartTime><Timestamp dt:dt=""int"">0</Timestamp><DateUtc dt:dt=""string"">2020-01-05T03:01:06Z</DateUtc></StartTime><FrequencyChanges><FrequencyChange><Frequency dt:dt=""r8"">3215292</Frequency><Timestamp dt:dt=""r8"">174256030453</Timestamp><Current dt:dt=""r8"">0</Current><DateUtc dt:dt=""string"">2020-01-05T03:01:06Z</DateUtc></FrequencyChange></FrequencyChanges></Clock>\n",SVO-09-1,60.005,1.0.0.4,1,black,black,black,black,black,black,black,black,black,-1837022619,2.0.10.182,01-05-2020,2020/1/5 3:01,11:01:06,2.0.10.92,3,,,,,,3,1,2,3,100,98,96,94,93,91,89,87,85,,ProcTrial,,black,black,black,black,black,black,black,black,cyan,416,ListSess,0,,-999999,117,20632,9,3084,23716,,,3,1,50,54,59,63,68,72,76,81,85,
SVO,9,1,"<?xml version=""1.0""?>\n<Clock xmlns:dt=""urn:schemas-microsoft-com:datatypes""><Description dt:dt=""string"">E-Prime Primary Realtime Clock</Description><StartTime><Timestamp dt:dt=""int"">0</Timestamp><DateUtc dt:dt=""string"">2020-01-05T03:01:06Z</DateUtc></StartTime><FrequencyChanges><FrequencyChange><Frequency dt:dt=""r8"">3215292</Frequency><Timestamp dt:dt=""r8"">174256030453</Timestamp><Current dt:dt=""r8"">0</Current><DateUtc dt:dt=""string"">2020-01-05T03:01:06Z</DateUtc></FrequencyChange></FrequencyChanges></Clock>\n",SVO-09-1,60.005,1.0.0.4,1,black,black,black,black,black,black,black,black,black,-1837022619,2.0.10.182,01-05-2020,2020/1/5 3:01,11:01:06,2.0.10.92,4,,,,,,4,1,2,4,100,89,79,68,58,47,36,26,15,,ProcTrial,,black,black,black,black,black,black,black,black,cyan,728,ListSess,0,,-999999,116,24848,9,2772,27620,,,4,1,50,54,59,63,68,72,76,81,85,
SVO,9,1,"<?xml version=""1.0""?>\n<Clock xmlns:dt=""urn:schemas-microsoft-com:datatypes""><Description dt:dt=""string"">E-Prime Primary Realtime Clock</Description><StartTime><Timestamp dt:dt=""int"">0</Timestamp><DateUtc dt:dt=""string"">2020-01-05T03:01:06Z</DateUtc></StartTime><FrequencyChanges><FrequencyChange><Frequency dt:dt=""r8"">3215292</Frequency><Timestamp dt:dt=""r8"">174256030453</Timestamp><Current dt:dt=""r8"">0</Current><DateUtc dt:dt=""string"">2020-01-05T03:01:06Z</DateUtc></FrequencyChange></FrequencyChanges></Clock>\n",SVO-09-1,60.005,1.0.0.4,1,black,black,black,black,black,black,black,black,black,-1837022619,2.0.10.182,01-05-2020,2020/1/5 3:01,11:01:06,2.0.10.92,5,,,,,,5,1,2,5,50,56,63,69,75,81,88,94,100,,ProcTrial,,cyan,black,black,black,black,black,black,black,black,2267,ListSess,0,,-999999,117,28715,1,1233,29948,,,5,1,100,94,88,81,75,69,63,56,50,
SVO,9,1,"<?xml version=""1.0""?>\n<Clock xmlns:dt=""urn:schemas-microsoft-com:datatypes""><Description dt:dt=""string"">E-Prime Primary Realtime Clock</Description><StartTime><Timestamp dt:dt=""int"">0</Timestamp><DateUtc dt:dt=""string"">2020-01-05T03:01:06Z</DateUtc></StartTime><FrequencyChanges><FrequencyChange><Frequency dt:dt=""r8"">3215292</Frequency><Timestamp dt:dt=""r8"">174256030453</Timestamp><Current dt:dt=""r8"">0</Current><DateUtc dt:dt=""string"">2020-01-05T03:01:06Z</DateUtc></FrequencyChange></FrequencyChanges></Clock>\n",SVO-09-1,60.005,1.0.0.4,1,black,black,black,black,black,black,black,black,black,-1837022619,2.0.10.182,01-05-2020,2020/1/5 3:01,11:01:06,2.0.10.92,6,,,,,,6,1,2,6,50,54,59,63,68,72,76,81,85,,ProcTrial,,cyan,black,black,black,black,black,black,black,black,2562,ListSess,0,,-999999,116,31114,1,938,32052,,,6,1,100,98,96,94,93,91,89,87,85,
SVO,9,1,"<?xml version=""1.0""?>\n<Clock xmlns:dt=""urn:schemas-microsoft-com:datatypes""><Description dt:dt=""string"">E-Prime Primary Realtime Clock</Description><StartTime><Timestamp dt:dt=""int"">0</Timestamp><DateUtc dt:dt=""string"">2020-01-05T03:01:06Z</DateUtc></StartTime><FrequencyChanges><FrequencyChange><Frequency dt:dt=""r8"">3215292</Frequency><Timestamp dt:dt=""r8"">174256030453</Timestamp><Current dt:dt=""r8"">0</Current><DateUtc dt:dt=""string"">2020-01-05T03:01:06Z</DateUtc></FrequencyChange></FrequencyChanges></Clock>\n",SVO-09-1,60.005,1.0.0.4,1,black,black,black,black,black,black,black,black,black,-1837022619,2.0.10.182,01-05-2020,2020/1/5 3:01,11:01:06,2.0.10.92,7,,,,,,7,1,2,7,50,56,63,69,75,81,88,94,100,,ProcTrial,,cyan,black,black,black,black,black,black,black,black,2753,ListSess,0,,-999999,117,33081,1,747,33828,,,7,2,100,96,93,89,85,81,78,74,70,
SVO,9,1,"<?xml version=""1.0""?>\n<Clock xmlns:dt=""urn:schemas-microsoft-com:datatypes""><Description dt:dt=""string"">E-Prime Primary Realtime Clock</Description><StartTime><Timestamp dt:dt=""int"">0</Timestamp><DateUtc dt:dt=""string"">2020-01-05T03:01:06Z</DateUtc></StartTime><FrequencyChanges><FrequencyChange><Frequency dt:dt=""r8"">3215292</Frequency><Timestamp dt:dt=""r8"">174256030453</Timestamp><Current dt:dt=""r8"">0</Current><DateUtc dt:dt=""string"">2020-01-05T03:01:06Z</DateUtc></FrequencyChange></FrequencyChanges></Clock>\n",SVO-09-1,60.005,1.0.0.4,1,black,black,black,black,black,black,black,black,black,-1837022619,2.0.10.182,01-05-2020,2020/1/5 3:01,11:01:06,2.0.10.92,8,,,,,,8,1,2,8,100,99,98,96,95,94,93,91,90,,ProcTrial,,black,black,black,black,black,black,black,black,cyan,1895,ListSess,0,,-999999,99,34847,9,1605,36452,,,8,2,90,91,93,94,95,96,98,99,100,
SVO,9,1,"<?xml version=""1.0""?>\n<Clock xmlns:dt=""urn:schemas-microsoft-com:datatypes""><Description dt:dt=""string"">E-Prime Primary Realtime Clock</Description><StartTime><Timestamp dt:dt=""int"">0</Timestamp><DateUtc dt:dt=""string"">2020-01-05T03:01:06Z</DateUtc></StartTime><FrequencyChanges><FrequencyChange><Frequency dt:dt=""r8"">3215292</Frequency><Timestamp dt:dt=""r8"">174256030453</Timestamp><Current dt:dt=""r8"">0</Current><DateUtc dt:dt=""string"">2020-01-05T03:01:06Z</DateUtc></FrequencyChange></FrequencyChanges></Clock>\n",SVO-09-1,60.005,1.0.0.4,1,black,black,black,black,black,black,black,black,black,-1837022619,2.0.10.182,01-05-2020,2020/1/5 3:01,11:01:06,2.0.10.92,9,,,,,,9,1,2,9,70,74,78,81,85,89,93,96,100,,ProcTrial,,cyan,black,black,black,black,black,black,black,black,2181,ListSess,0,,-999999,116,37597,1,1319,38916,,,9,2,100,94,88,81,75,69,63,56,50,
SVO,9,1,"<?xml version=""1.0""?>\n<Clock xmlns:dt=""urn:schemas-microsoft-com:datatypes""><Description dt:dt=""string"">E-Prime Primary Realtime Clock</Description><StartTime><Timestamp dt:dt=""int"">0</Timestamp><DateUtc dt:dt=""string"">2020-01-05T03:01:06Z</DateUtc></StartTime><FrequencyChanges><FrequencyChange><Frequency dt:dt=""r8"">3215292</Frequency><Timestamp dt:dt=""r8"">174256030453</Timestamp><Current dt:dt=""r8"">0</Current><DateUtc dt:dt=""string"">2020-01-05T03:01:06Z</DateUtc></FrequencyChange></FrequencyChanges></Clock>\n",SVO-09-1,60.005,1.0.0.4,1,black,black,black,black,black,black,black,black,black,-1837022619,2.0.10.182,01-05-2020,2020/1/5 3:01,11:01:06,2.0.10.92,10,,,,,,10,1,2,10,70,74,78,81,85,89,93,96,100,,ProcTrial,,cyan,black,black,black,black,black,black,black,black,2876,ListSess,0,,-999999,117,39964,1,624,40588,,,10,2,100,99,98,96,95,94,93,91,90,
SVO,9,1,"<?xml version=""1.0""?>\n<Clock xmlns:dt=""urn:schemas-microsoft-com:datatypes""><Description dt:dt=""string"">E-Prime Primary Realtime Clock</Description><StartTime><Timestamp dt:dt=""int"">0</Timestamp><DateUtc dt:dt=""string"">2020-01-05T03:01:06Z</DateUtc></StartTime><FrequencyChanges><FrequencyChange><Frequency dt:dt=""r8"">3215292</Frequency><Timestamp dt:dt=""r8"">174256030453</Timestamp><Current dt:dt=""r8"">0</Current><DateUtc dt:dt=""string"">2020-01-05T03:01:06Z</DateUtc></FrequencyChange></FrequencyChanges></Clock>\n",SVO-09-1,60.005,1.0.0.4,1,black,black,black,black,black,black,black,black,black,-1837022619,2.0.10.182,01-05-2020,2020/1/5 3:01,11:01:06,2.0.10.92,11,,,,,,11,1,2,11,100,96,93,89,85,81,78,74,70,,ProcTrial,,black,black,black,black,black,black,black,black,cyan,2208,ListSess,0,,-999999,117,41664,9,1292,42956,,,11,2,70,74,78,81,85,89,93,96,100,
SVO,9,1,"<?xml version=""1.0""?>\n<Clock xmlns:dt=""urn:schemas-microsoft-com:datatypes""><Description dt:dt=""string"">E-Prime Primary Realtime Clock</Description><StartTime><Timestamp dt:dt=""int"">0</Timestamp><DateUtc dt:dt=""string"">2020-01-05T03:01:06Z</DateUtc></StartTime><FrequencyChanges><FrequencyChange><Frequency dt:dt=""r8"">3215292</Frequency><Timestamp dt:dt=""r8"">174256030453</Timestamp><Current dt:dt=""r8"">0</Current><DateUtc dt:dt=""string"">2020-01-05T03:01:06Z</DateUtc></FrequencyChange></FrequencyChanges></Clock>\n",SVO-09-1,60.005,1.0.0.4,1,black,black,black,black,black,black,black,black,black,-1837022619,2.0.10.182,01-05-2020,2020/1/5 3:01,11:01:06,2.0.10.92,12,,,,,,12,1,2,12,100,99,98,96,95,94,93,91,90,,ProcTrial,,black,black,black,black,black,black,black,black,cyan,2491,ListSess,0,,-999999,100,43947,9,1009,44956,,,12,2,50,56,63,69,75,81,88,94,100,
SVO,9,1,"<?xml version=""1.0""?>\n<Clock xmlns:dt=""urn:schemas-microsoft-com:datatypes""><Description dt:dt=""string"">E-Prime Primary Realtime Clock</Description><StartTime><Timestamp dt:dt=""int"">0</Timestamp><DateUtc dt:dt=""string"">2020-01-05T03:01:06Z</DateUtc></StartTime><FrequencyChanges><FrequencyChange><Frequency dt:dt=""r8"">3215292</Frequency><Timestamp dt:dt=""r8"">174256030453</Timestamp><Current dt:dt=""r8"">0</Current><DateUtc dt:dt=""string"">2020-01-05T03:01:06Z</DateUtc></FrequencyChange></FrequencyChanges></Clock>\n",SVO-09-1,60.005,1.0.0.4,1,black,black,black,black,black,black,black,black,black,-1837022619,2.0.10.182,01-05-2020,2020/1/5 3:01,11:01:06,2.0.10.92,13,,,,,,13,1,2,13,100,94,88,81,75,69,63,56,50,,ProcTrial,,black,black,black,black,black,black,black,black,cyan,2498,ListSess,0,,-999999,100,45930,9,1002,46932,,,13,2,50,56,63,69,75,81,88,94,100,
SVO,9,1,"<?xml version=""1.0""?>\n<Clock xmlns:dt=""urn:schemas-microsoft-com:datatypes""><Description dt:dt=""string"">E-Prime Primary Realtime Clock</Description><StartTime><Timestamp dt:dt=""int"">0</Timestamp><DateUtc dt:dt=""string"">2020-01-05T03:01:06Z</DateUtc></StartTime><FrequencyChanges><FrequencyChange><Frequency dt:dt=""r8"">3215292</Frequency><Timestamp dt:dt=""r8"">174256030453</Timestamp><Current dt:dt=""r8"">0</Current><DateUtc dt:dt=""string"">2020-01-05T03:01:06Z</DateUtc></FrequencyChange></FrequencyChanges></Clock>\n",SVO-09-1,60.005,1.0.0.4,1,black,black,black,black,black,black,black,black,black,-1837022619,2.0.10.182,01-05-2020,2020/1/5 3:01,11:01:06,2.0.10.92,14,,,,,,14,1,2,14,90,91,93,94,95,96,98,99,100,,ProcTrial,,cyan,black,black,black,black,black,black,black,black,2433,ListSess,0,,-999999,100,47896,1,1067,48963,,,14,2,100,96,93,89,85,81,78,74,70,
SVO,9,1,"<?xml version=""1.0""?>\n<Clock xmlns:dt=""urn:schemas-microsoft-com:datatypes""><Description dt:dt=""string"">E-Prime Primary Realtime Clock</Description><StartTime><Timestamp dt:dt=""int"">0</Timestamp><DateUtc dt:dt=""string"">2020-01-05T03:01:06Z</DateUtc></StartTime><FrequencyChanges><FrequencyChange><Frequency dt:dt=""r8"">3215292</Frequency><Timestamp dt:dt=""r8"">174256030453</Timestamp><Current dt:dt=""r8"">0</Current><DateUtc dt:dt=""string"">2020-01-05T03:01:06Z</DateUtc></FrequencyChange></FrequencyChanges></Clock>\n",SVO-09-1,60.005,1.0.0.4,1,black,black,black,black,black,black,black,black,black,-1837022619,2.0.10.182,01-05-2020,2020/1/5 3:01,11:01:06,2.0.10.92,15,1,0.5,0,0.5,999,15,1,2,15,100,94,88,81,75,69,63,56,50,55.83333,ProcTrial,,black,black,black,black,black,black,black,black,cyan,2588,ListSess,0,,-999999,117,49963,9,912,50875,0.1372549,3,15,2,90,91,93,94,95,96,98,99,100,92.5
SVO,10,1,"<?xml version=""1.0""?>\n<Clock xmlns:dt=""urn:schemas-microsoft-com:datatypes""><Description dt:dt=""string"">E-Prime Primary Realtime Clock</Description><StartTime><Timestamp dt:dt=""int"">0</Timestamp><DateUtc dt:dt=""string"">2020-01-05T02:49:51Z</DateUtc></StartTime><FrequencyChanges><FrequencyChange><Frequency dt:dt=""r8"">3507548</Frequency><Timestamp dt:dt=""r8"">477588917800</Timestamp><Current dt:dt=""r8"">0</Current><DateUtc dt:dt=""string"">2020-01-05T02:49:51Z</DateUtc></FrequencyChange></FrequencyChanges></Clock>\n",SVO-10-1,60.023,1.0.0.6,1,black,black,black,black,black,black,black,black,black,848249739,2.0.10.182,01-05-2020,2020/1/5 2:49,10:49:51,2.0.10.92,1,,,,,,1,1,2,1,85,76,68,59,50,41,33,24,15,,ProcTrial,,black,black,black,black,cyan,black,black,black,black,55,ListSess,0,,-999999,83,6807,5,3445,10252,,,1,1,85,85,85,85,85,85,85,85,85,
SVO,10,1,"<?xml version=""1.0""?>\n<Clock xmlns:dt=""urn:schemas-microsoft-com:datatypes""><Description dt:dt=""string"">E-Prime Primary Realtime Clock</Description><StartTime><Timestamp dt:dt=""int"">0</Timestamp><DateUtc dt:dt=""string"">2020-01-05T02:49:51Z</DateUtc></StartTime><FrequencyChanges><FrequencyChange><Frequency dt:dt=""r8"">3507548</Frequency><Timestamp dt:dt=""r8"">477588917800</Timestamp><Current dt:dt=""r8"">0</Current><DateUtc dt:dt=""string"">2020-01-05T02:49:51Z</DateUtc></FrequencyChange></FrequencyChanges></Clock>\n",SVO-10-1,60.023,1.0.0.6,1,black,black,black,black,black,black,black,black,black,848249739,2.0.10.182,01-05-2020,2020/1/5 2:49,10:49:51,2.0.10.92,2,,,,,,2,1,2,2,15,19,24,28,33,37,41,46,50,,ProcTrial,,black,black,black,black,black,black,black,black,cyan,-2383,ListSess,0,,-999999,66,11705,9,5883,17588,,,2,1,85,87,89,91,93,94,96,98,100,
SVO,10,1,"<?xml version=""1.0""?>\n<Clock xmlns:dt=""urn:schemas-microsoft-com:datatypes""><Description dt:dt=""string"">E-Prime Primary Realtime Clock</Description><StartTime><Timestamp dt:dt=""int"">0</Timestamp><DateUtc dt:dt=""string"">2020-01-05T02:49:51Z</DateUtc></StartTime><FrequencyChanges><FrequencyChange><Frequency dt:dt=""r8"">3507548</Frequency><Timestamp dt:dt=""r8"">477588917800</Timestamp><Current dt:dt=""r8"">0</Current><DateUtc dt:dt=""string"">2020-01-05T02:49:51Z</DateUtc></FrequencyChange></FrequencyChanges></Clock>\n",SVO-10-1,60.023,1.0.0.6,1,black,black,black,black,black,black,black,black,black,848249739,2.0.10.182,01-05-2020,2020/1/5 2:49,10:49:51,2.0.10.92,3,,,,,,3,1,2,3,100,98,96,94,93,91,89,87,85,,ProcTrial,,black,black,black,black,black,black,black,black,cyan,1891,ListSess,0,,-999999,66,18619,9,1609,20228,,,3,1,50,54,59,63,68,72,76,81,85,
SVO,10,1,"<?xml version=""1.0""?>\n<Clock xmlns:dt=""urn:schemas-microsoft-com:datatypes""><Description dt:dt=""string"">E-Prime Primary Realtime Clock</Description><StartTime><Timestamp dt:dt=""int"">0</Timestamp><DateUtc dt:dt=""string"">2020-01-05T02:49:51Z</DateUtc></StartTime><FrequencyChanges><FrequencyChange><Frequency dt:dt=""r8"">3507548</Frequency><Timestamp dt:dt=""r8"">477588917800</Timestamp><Current dt:dt=""r8"">0</Current><DateUtc dt:dt=""string"">2020-01-05T02:49:51Z</DateUtc></FrequencyChange></FrequencyChanges></Clock>\n",SVO-10-1,60.023,1.0.0.6,1,black,black,black,black,black,black,black,black,black,848249739,2.0.10.182,01-05-2020,2020/1/5 2:49,10:49:51,2.0.10.92,4,,,,,,4,1,2,4,100,89,79,68,58,47,36,26,15,,ProcTrial,,black,black,black,black,cyan,black,black,black,black,-5282,ListSess,0,,-999999,67,21102,5,8782,29884,,,4,1,50,54,59,63,68,72,76,81,85,
SVO,10,1,"<?xml version=""1.0""?>\n<Clock xmlns:dt=""urn:schemas-microsoft-com:datatypes""><Description dt:dt=""string"">E-Prime Primary Realtime Clock</Description><StartTime><Timestamp dt:dt=""int"">0</Timestamp><DateUtc dt:dt=""string"">2020-01-05T02:49:51Z</DateUtc></StartTime><FrequencyChanges><FrequencyChange><Frequency dt:dt=""r8"">3507548</Frequency><Timestamp dt:dt=""r8"">477588917800</Timestamp><Current dt:dt=""r8"">0</Current><DateUtc dt:dt=""string"">2020-01-05T02:49:51Z</DateUtc></FrequencyChange></FrequencyChanges></Clock>\n",SVO-10-1,60.023,1.0.0.6,1,black,black,black,black,black,black,black,black,black,848249739,2.0.10.182,01-05-2020,2020/1/5 2:49,10:49:51,2.0.10.92,5,,,,,,5,1,2,5,50,56,63,69,75,81,88,94,100,,ProcTrial,,black,black,black,black,cyan,black,black,black,black,1482,ListSess,0,,-999999,66,30698,5,2018,32716,,,5,1,100,94,88,81,75,69,63,56,50,
SVO,10,1,"<?xml version=""1.0""?>\n<Clock xmlns:dt=""urn:schemas-microsoft-com:datatypes""><Description dt:dt=""string"">E-Prime Primary Realtime Clock</Description><StartTime><Timestamp dt:dt=""int"">0</Timestamp><DateUtc dt:dt=""string"">2020-01-05T02:49:51Z</DateUtc></StartTime><FrequencyChanges><FrequencyChange><Frequency dt:dt=""r8"">3507548</Frequency><Timestamp dt:dt=""r8"">477588917800</Timestamp><Current dt:dt=""r8"">0</Current><DateUtc dt:dt=""string"">2020-01-05T02:49:51Z</DateUtc></FrequencyChange></FrequencyChanges></Clock>\n",SVO-10-1,60.023,1.0.0.6,1,black,black,black,black,black,black,black,black,black,848249739,2.0.10.182,01-05-2020,2020/1/5 2:49,10:49:51,2.0.10.92,6,,,,,,6,1,2,6,50,54,59,63,68,72,76,81,85,,ProcTrial,,black,black,black,black,black,black,black,black,cyan,279,ListSess,0,,-999999,66,33447,9,3221,36668,,,6,1,100,98,96,94,93,91,89,87,85,
